Folder: Senior-Flexonics/text_data (part 2)

File: C3.txt
Load (N)	Extension (mm)

1.5135	-0.34454
1.5944	-0.34454
3.5454	-0.22319
4.3302	0.10318
0.79929	-0.20977
-3.1522	-0.72402
-6.8632	-1.2470
-10.574	-1.7698
-14.285	-2.2915
-17.996	-2.8110
-21.678	-3.3283
-25.205	-3.8457
-28.732	-4.3641
-32.259	-4.8831
-35.786	-5.4021
-39.313	-5.9207
-42.839	-6.4393
-46.366	-6.9578
-49.893	-7.4763
-53.420	-7.9947
-57.087	-8.5132
-60.526	-9.0316
-63.649	-9.5495
-66.758	-10.067
-70.015	-10.585
-73.480	-11.103
-76.946	-11.621
-80.411	-12.139
-83.877	-12.657
-87.476	-13.175
-91.436	-13.693
-95.298	-14.211
-97.646	-14.731
-101.42	-15.250
-105.19	-15.767
-108.96	-16.285
-112.74	-16.803
-116.51	-17.322
-120.28	-17.840
-124.06	-18.358
-127.83	-18.876
-131.60	-19.395
-135.37	-19.913
-139.94	-20.431
-144.74	-20.949
-152.61	-21.467
-169.37	-21.984
-212.29	-22.502
-257.85	-23.019
-390.05	-23.532
-516.43	-23.827
-262.05	-23.447
-129.96	-22.932
-113.01	-22.417
-100.06	-21.902
-97.767	-21.385
-95.469	-20.867
-93.171	-20.348
-90.874	-19.830
-88.576	-19.312
-86.278	-18.794
-83.980	-18.276
-81.683	-17.758
-79.385	-17.239
-77.087	-16.721
-74.789	-16.203
-68.397	-15.684
-66.145	-15.165
-63.892	-14.647
-61.639	-14.129
-59.386	-13.610
-57.133	-13.092
-54.816	-12.574
-50.941	-12.055
-49.210	-11.537
-46.727	-11.019
-44.030	-10.500
-41.442	-9.9826
-39.528	-9.4649
-36.664	-8.9472
-33.976	-8.4293
-31.874	-7.9110
-29.667	-7.3927
-26.414	-6.8744
-23.584	-6.3561
-21.151	-5.8380
-18.718	-5.3202
-16.285	-4.8024
-13.783	-4.2847
-11.268	-3.7633
-8.7526	-3.2454
-6.2375	-2.7275
-3.2709	-2.2096
-0.98509	-1.6917
1.2424	-1.1732
4.0743	-0.65114
6.3096	-0.13666
8.0525	0.38147
10.189	0.89961
12.943	1.4177
15.697	1.9359
18.451	2.4540
21.293	2.9721
24.041	3.4903
26.540	4.0084
29.225	4.5314
32.535	5.0487
35.858	5.5661
38.550	6.0840
40.381	6.6019
43.050	7.1197
46.021	7.6376
49.865	8.1555
51.472	8.6734
54.264	9.1944
57.155	9.7118
61.464	10.229
63.073	10.747
65.608	11.265
68.420	11.793
71.418	12.300
74.417	12.819
77.515	13.337
81.375	13.855
84.554	14.374
87.396	14.892
90.234	15.410
92.797	15.929
95.359	16.447
97.922	16.965
101.65	17.483
105.31	18.001
109.57	18.519
113.53	19.037
117.43	19.555
121.33	20.075
125.79	20.594
128.84	21.112
132.38	21.630
136.89	22.148
142.39	22.667
145.01	23.185
149.77	23.703
155.12	24.221
160.18	24.739
162.60	25.257
166.98	25.775
173.50	26.294
180.18	26.811
182.94	27.329
188.63	27.847
196.76	28.365
204.06	28.883
209.38	29.402
214.70	29.920
224.65	30.439
231.09	30.957
237.53	31.475
248.34	31.993
265.93	32.511
279.53	33.029
294.78	33.546
315.42	34.063
339.05	34.580
365.48	35.096
384.43	35.613
425.08	36.130
465.73	36.647
421.42	36.695
313.18	36.182
269.47	35.664
243.42	35.145
228.14	34.627
213.86	34.109
204.86	33.591
195.87	33.073
188.96	32.555
182.49	32.036
177.37	31.518
172.71	31.000
168.06	30.482
163.53	29.964
159.50	29.446
155.46	28.929
151.42	28.411
147.46	27.892
143.81	27.374
140.16	26.856
136.51	26.338
132.95	25.820
129.58	25.302
126.21	24.784
122.84	24.265
119.48	23.745
116.11	23.227
112.74	22.709
109.48	22.191
106.31	21.672
103.14	21.154
99.973	20.636
96.803	20.118
93.633	19.599
90.463	19.081
87.293	18.563
84.216	18.045
81.179	17.526
78.142	17.008
75.105	16.490
72.068	15.972
69.033	15.453
66.010	14.936
62.987	14.418
60.001	13.901
57.069	13.381
54.136	12.863
51.204	12.344
48.271	11.826
45.338	11.307
42.406	10.789
39.473	10.271
36.540	9.7521
33.608	9.2336
30.675	8.7151
28.069	8.1969
25.090	7.6786
22.157	7.1604
19.294	6.6421
16.431	6.1239
13.568	5.6057
10.705	5.0874
7.8418	4.5692
4.9788	4.0509
2.6778	3.5327
-0.40812	3.0144
-3.4941	2.4961
-6.3684	1.9778
-9.2414	1.4595
-11.951	0.94118
-14.694	0.42287
-17.655	-0.095438
-20.605	-0.61375
-23.552	-1.1321
-26.499	-1.6504
-29.446	-2.1686
-33.052	-2.6869
-36.244	-3.2051
-39.021	-3.7234
-42.027	-4.2428
-45.564	-4.7620
-47.852	-5.2805
-51.028	-5.7990
-54.319	-6.3174
-57.648	-6.8359
-60.391	-7.3543
-62.840	-7.8699
-65.564	-8.3879
-68.287	-8.9060
-71.253	-9.4241
-74.404	-9.9422
-77.554	-10.460
-80.705	-10.978
-83.855	-11.497
-87.005	-12.015
-90.156	-12.533
-93.316	-13.051
-97.213	-13.570
-101.11	-14.089
-104.61	-14.609
-108.03	-15.127
-111.45	-15.645
-114.88	-16.163
-118.30	-16.681
-122.34	-17.199
-126.49	-17.717
-130.63	-18.236
-135.64	-18.754
-139.03	-19.272
-144.03	-19.790
-149.65	-20.308
-155.69	-20.825
-166.45	-21.343
-186.32	-21.861
-221.90	-22.378
-261.00	-22.895
-348.22	-23.411
-456.53	-23.707
-341.36	-23.572

File: C4 -10.txt
Load (N)	Extension (mm)

9.6235
9.6427	0.043945
9.6619	0.043945
9.6811	0.043945
9.7003	0.043945
9.7195	0.043945
3.7629	-0.080857
6.4111	-0.082324
7.1264	-0.11276
1.1908	-0.23470
-0.062277	-0.40414
-1.3153	-0.58839
-2.5684	-0.77264
-3.8215	-0.95689
-5.0745	-1.1414
-6.3276	-1.3260
-7.5807	-1.5105
-8.8337	-1.6943
-10.087	-1.8783
-11.340	-2.0649
-12.593	-2.2485
-13.762	-2.4308
-14.819	-2.6139
-15.876	-2.7976
-16.933	-2.9812
-17.990	-3.1643
-19.047	-3.3494
-20.104	-3.5315
-21.161	-3.7139
-22.218	-3.8963
-23.275	-4.0791
-24.332	-4.2622
-25.389	-4.4453
-26.446	-4.6284
-27.503	-4.8116
-28.560	-4.9947
-29.617	-5.1778
-30.674	-5.3609
-31.731	-5.5440
-32.788	-5.7272
-33.845	-5.9103
-34.902	-6.0934
-35.959	-6.2765
-37.016	-6.4597
-38.073	-6.6428
-39.130	-6.8259
-40.187	-7.0090
-41.244	-7.1922
-42.301	-7.3753
-43.348	-7.5619
-44.366	-7.7460
-45.383	-7.9288
-46.401	-8.1117
-47.418	-8.2945
-48.435	-8.4774
-49.453	-8.6603
-50.470	-8.8431
-51.488	-9.0260
-52.505	-9.2088
-53.523	-9.3917
-54.583	-9.5746
-55.735	-9.7574
-56.887	-9.9403
-51.976	-10.014
-46.605	-10.008
-41.831	-9.9345
-38.921	-9.7694
-36.111	-9.5862
-35.466	-9.4030
-34.820	-9.2197
-34.175	-9.0365
-33.530	-8.8533
-32.885	-8.6700
-32.240	-8.4868
-31.595	-8.3036
-30.950	-8.1203
-30.305	-7.9371
-29.660	-7.7538
-28.680	-7.5706
-27.623	-7.3874
-26.566	-7.2041
-25.509	-7.0209
-24.452	-6.8377
-23.395	-6.6544
-22.338	-6.4712
-21.281	-6.2880
-20.224	-6.1047
-19.167	-5.9215
-18.110	-5.7382
-16.117	-5.5550
-15.361	-5.3718
-14.605	-5.1885
-13.848	-5.0053
-13.092	-4.8221
-12.336	-4.6388
-11.580	-4.4556
-10.823	-4.2723
-10.067	-4.0891
-9.2760	-3.9059
-8.2365	-3.7226
-7.1969	-3.5394
-6.1574	-3.3562
-5.1178	-3.1729
-4.0782	-2.9897
-3.0387	-2.8065
-2.0586	-2.6232
-1.1317	-2.4400
-0.20477	-2.2567
0.72216	-2.0735
1.6491	-1.8903
2.5760	-1.7070
3.6747	-1.5238
4.8800	-1.3406
6.0854	-1.1573
7.2907	-0.97409
8.4960	-0.79085
9.7014	-0.60781
10.961	-0.42488
12.384	-0.24196
13.393	-0.059034
14.188	0.12389
14.983	0.30682
15.778	0.48974
16.573	0.67228
17.162	0.85453
17.723	1.0369
18.285	1.2206
18.846	1.4043
20.050	1.5877
21.422	1.7709
22.794	1.9542
24.166	2.1375
25.538	2.3208
26.231	2.5041
26.744	2.6874
27.257	2.8707
27.769	3.0539
28.282	3.2372
29.137	3.4205
30.678	3.6038
32.219	3.7871
33.661	3.9704
34.544	4.1537
35.427	4.3370
36.510	4.5203
37.438	4.7036
38.018	4.8869
38.599	5.0703
39.179	5.2536
40.006	5.4366
41.175	5.6192
42.343	5.8018
43.511	5.9843
44.646	6.1669
45.476	6.3498
46.306	6.5338
47.137	6.7178
47.967	6.9019
48.797	7.0859
49.627	7.2698
50.499	7.4527
52.140	7.6357
53.781	7.8187
54.998	8.0017
55.868	8.1794
56.737	8.3701
57.607	8.5528
58.477	8.7354
59.346	8.9181
60.216	9.1008
61.085	9.2834
61.998	9.4661
63.183	9.6487
64.367	9.8314
65.552	10.009
53.009	9.8555
50.404	9.6847
47.798	9.5054
45.668	9.3222
44.565	9.1390
43.461	8.9557
42.357	8.7725
41.254	8.5893
40.150	8.4060
39.046	8.2228
37.943	8.0396
36.839	7.8563
35.735	7.6731
34.631	7.4899
33.528	7.3066
32.424	7.1234
31.320	6.9402
30.217	6.7569
29.113	6.5737
28.009	6.3905
26.980	6.2072
25.981	6.0240
24.981	5.8408
23.982	5.6575
22.982	5.4743
21.982	5.2911
20.983	5.1078
19.983	4.9246
18.984	4.7414
17.984	4.5581
16.984	4.3749
15.985	4.1917
14.985	4.0085
13.985	3.8252
12.986	3.6420
11.986	3.4588
10.987	3.2755
9.9869	3.0923
8.9873	2.9091
7.9877	2.7258
6.9881	2.5426
5.9884	2.3594
4.9888	2.1761
3.9892	1.9928
2.9896	1.8095
1.9900	1.6262
0.99035	1.4429
-0.0092742	1.2596
-1.0089	1.0763
-2.0085	0.89306
-3.0081	0.70977
-4.0078	0.52649
-5.0994	0.34320
-6.2383	0.15991
-7.3593	-0.023372
-8.3854	-0.20666
-9.4115	-0.38995
-10.438	-0.57317
-11.464	-0.75638
-12.490	-0.93959
-13.516	-1.1228
-14.542	-1.3060
-15.568	-1.4892
-16.594	-1.6724
-17.620	-1.8556
-18.646	-2.0389
-19.672	-2.2222
-20.698	-2.4054
-21.681	-2.5887
-22.623	-2.7718
-23.564	-2.9548
-24.506	-3.1378
-25.448	-3.3208
-26.389	-3.5038
-27.331	-3.6868
-28.273	-3.8700
-29.214	-4.0531
-30.156	-4.2363
-31.097	-4.4195
-32.107	-4.6027
-33.130	-4.7859
-34.153	-4.9691
-35.176	-5.1523
-36.199	-5.3355
-37.222	-5.5187
-38.245	-5.7019
-39.268	-5.8850
-40.291	-6.0682
-41.314	-6.2514
-42.337	-6.4346
-43.360	-6.6178
-44.383	-6.8010
-45.406	-6.9842
-46.429	-7.1674
-47.452	-7.3506
-48.475	-7.5347
-49.498	-7.7186
-50.521	-7.9021
-51.544	-8.0856
-52.567	-8.2691
-53.590	-8.4526
-54.612	-8.6359
-55.615	-8.8191
-56.526	-9.0023
-57.437	-9.1855
-58.348	-9.3683
-59.260	-9.5509
-60.251	-9.7335
-61.288	-9.9162
-56.069	-9.9541
-37.729	-9.7849

File: C4.txt
Load (N)	Extension (mm)

9.7223	0.046387
9.7282	0.046387
7.9535	-0.066999
-0.80518	-0.38625
-4.4026	-0.91578
-7.4564	-1.4467
-10.510	-1.9781
-13.564	-2.5043
-16.618	-3.0339
-19.671	-3.5628
-22.725	-4.0915
-25.779	-4.6179
-28.833	-5.1442
-31.886	-5.6706
-34.940	-6.1973
-37.994	-6.7253
-41.048	-7.2533
-44.101	-7.7813
-47.155	-8.3093
-50.209	-8.8373
-53.414	-9.3617
-56.662	-9.8888
-59.835	-10.416
-62.965	-10.943
-65.543	-11.470
-68.517	-11.998
-71.722	-12.525
-74.771	-13.053
-77.741	-13.580
-80.711	-14.107
-83.680	-14.635
-86.650	-15.162
-90.283	-15.690
-93.589	-16.220
-96.672	-16.747
-99.755	-17.274
-102.84	-17.801
-105.92	-18.328
-109.00	-18.855
-111.73	-19.383
-115.33	-19.910
-119.29	-20.437
-124.14	-20.965
-136.81	-21.491
-150.19	-22.014
-206.99	-22.537
-379.14	-23.060
-512.77	-23.357
-300.26	-23.078
-134.97	-22.556
-122.65	-22.034
-111.55	-21.511
-100.46	-20.988
-84.523	-20.460
-81.245	-19.933
-78.361	-19.406
-75.935	-18.879
-73.510	-18.352
-71.084	-17.824
-67.388	-17.297
-65.222	-16.770
-63.056	-16.243
-60.057	-15.716
-56.920	-15.188
-55.394	-14.661
-53.094	-14.134
-49.360	-13.607
-46.642	-13.080
-45.142	-12.553
-43.102	-12.025
-39.378	-11.498
-36.347	-10.970
-35.206	-10.443
-32.218	-9.9155
-28.941	-9.3849
-26.897	-8.8592
-25.597	-8.3336
-21.556	-7.8066
-18.068	-7.2791
-16.566	-6.7516
-15.082	-6.2242
-10.992	-5.6967
-8.9234	-5.1691
-7.6145	-4.6414
-5.0443	-4.1133
-2.2194	-3.5860
-0.10592	-3.0587
2.1274	-2.5314
5.6492	-2.0041
8.4133	-1.4768
9.9885	-0.94946
12.178	-0.42216
15.148	0.10515
17.637	0.63093
19.836	1.1584
22.034	1.6858
24.951	2.2132
28.701	2.7407
30.460	3.2677
32.392	3.7946
35.830	4.3214
38.961	4.8483
40.605	5.3752
43.304	5.9025
46.445	6.4298
48.989	6.9571
51.738	7.4844
54.983	8.0117
57.616	8.5454
59.964	9.0660
63.061	9.5930
66.872	10.120
69.132	10.647
71.392	11.174
74.956	11.701
77.930	12.228
79.593	12.755
83.666	13.282
86.996	13.809
89.563	14.336
90.756	14.863
95.012	15.390
99.268	15.921
100.15	16.449
103.03	16.977
108.19	17.504
111.39	18.031
113.22	18.556
116.65	19.083
121.96	19.610
125.02	20.138
126.99	20.666
131.82	21.193
136.97	21.721
139.04	22.248
141.12	22.776
146.36	23.303
150.68	23.831
153.03	24.358
156.98	24.886
163.57	25.413
167.36	25.941
168.89	26.468
175.58	26.994
182.89	27.521
186.98	28.048
189.19	28.576
194.05	29.103
200.76	29.630
209.45	30.157
215.22	30.685
220.72	31.212
225.37	31.740
230.25	32.267
242.05	32.794
251.40	33.321
256.95	33.848
267.20	34.376
283.67	34.903
294.72	35.430
306.90	35.955
326.99	36.481
346.31	37.007
362.75	37.534
393.86	38.060
435.95	38.587
485.24	39.113
363.43	38.748
299.30	38.225
269.55	37.698
249.99	37.171
237.18	36.644
224.36	36.117
215.51	35.589
207.44	35.062
200.00	34.535
193.97	34.008
187.94	33.481
182.61	32.954
177.71	32.426
172.80	31.899
168.11	31.372
163.92	30.844
159.72	30.317
155.52	29.790
151.33	29.262
147.33	28.735
143.48	28.208
139.64	27.680
135.80	27.153
131.95	26.626
128.30	26.099
124.83	25.572
121.36	25.045
117.89	24.515
114.43	23.989
110.96	23.462
107.52	22.933
104.33	22.405
101.14	21.877
97.946	21.350
94.756	20.822
91.565	20.295
88.375	19.768
85.190	19.240
82.073	18.713
78.957	18.186
75.840	17.659
72.724	17.131
69.607	16.604
66.502	16.078
63.438	15.551
60.373	15.025
57.308	14.498
54.243	13.970
51.178	13.442
48.673	12.914
45.807	12.386
42.941	11.859
40.075	11.331
37.209	10.804
34.343	10.276
31.476	9.7487
28.610	9.2216
25.744	8.6949
22.878	8.1682
20.012	7.6414
17.146	7.1147
14.280	6.5880
11.413	6.0574
8.6189	5.5301
5.9002	5.0028
3.1815	4.4755
0.46287	3.9482
-2.2558	3.4209
-4.9745	2.8936
-7.6931	2.3663
-10.412	1.8390
-13.130	1.3117
-15.851	0.78446
-18.893	0.25717
-21.781	-0.27012
-24.616	-0.79741
-27.451	-1.3247
-30.286	-1.8521
-32.830	-2.3798
-35.638	-2.9055
-38.610	-3.4329
-41.581	-3.9615
-44.424	-4.4895
-47.107	-5.0175
-49.791	-5.5448
-52.474	-6.0721
-55.306	-6.5993
-58.210	-7.1266
-61.053	-7.6539
-63.895	-8.1811
-66.738	-8.7084
-69.577	-9.2357
-72.415	-9.7629
-74.853	-10.289
-77.670	-10.815
-80.968	-11.342
-84.266	-11.869
-87.544	-12.397
-90.387	-12.924
-93.231	-13.453
-96.104	-13.981
-99.660	-14.508
-103.22	-15.035
-107.25	-15.563
-111.29	-16.090
-115.33	-16.617
-119.37	-17.145
-122.41	-17.672
-126.16	-18.199
-130.99	-18.726
-138.13	-19.253
-146.19	-19.780
-154.50	-20.307
-165.46	-20.833
-184.64	-21.360
-210.47	-21.885
-256.77	-22.410
-351.17	-22.936
-457.75	-23.249
-327.10	-23.110

File: C5 - 10.txt
Load (N)	Extension (mm)

5.2134	0.069275
5.2289	0.069275
5.2445	0.069275
5.2600	0.069275
5.2755	0.069275
1.4606	0.014970
2.5740	0.015240
0.74199	0.013162
-0.68808	-0.032042
-4.3974	-0.19239
-5.7253	-0.37252
-7.0532	-0.55606
-8.3811	-0.74130
-9.7090	-0.92640
-11.037	-1.1108
-12.365	-1.2963
-13.693	-1.4809
-15.021	-1.6649
-16.349	-1.8483
-17.677	-2.0326
-19.004	-2.2168
-20.332	-2.4002
-21.660	-2.5836
-22.988	-2.7696
-24.316	-2.9498
-25.632	-3.1335
-26.862	-3.3172
-28.093	-3.5009
-29.323	-3.6846
-30.554	-3.8683
-31.785	-4.0520
-33.015	-4.2353
-34.246	-4.4187
-35.476	-4.6020
-36.707	-4.7853
-37.937	-4.9687
-39.195	-5.1520
-40.456	-5.3353
-41.716	-5.5187
-42.977	-5.7020
-44.237	-5.8854
-45.498	-6.0687
-46.759	-6.2520
-47.929	-6.4354
-48.969	-6.6187
-50.008	-6.8020
-51.048	-6.9854
-52.087	-7.1687
-53.127	-7.3521
-54.361	-7.5354
-55.790	-7.7187
-57.218	-7.9022
-58.431	-8.0857
-59.465	-8.2692
-60.498	-8.4527
-61.532	-8.6362
-62.565	-8.8196
-63.595	-9.0031
-64.585	-9.1864
-65.575	-9.3695
-66.565	-9.5526
-67.555	-9.7357
-68.544	-9.9188
-65.561	-10.014
-62.007	-10.005
-59.859	-9.9596
-41.855	-9.7975
-40.789	-9.6189
-39.724	-9.4356
-38.658	-9.2524
-37.593	-9.0691
-36.527	-8.8858
-35.462	-8.7025
-34.396	-8.5192
-33.330	-8.3359
-32.265	-8.1526
-31.199	-7.9693
-30.134	-7.7861
-29.068	-7.6028
-28.003	-7.4195
-26.937	-7.2362
-25.872	-7.0529
-25.097	-6.8696
-24.554	-6.6863
-24.010	-6.5030
-23.467	-6.3198
-22.675	-6.1365
-21.600	-5.9532
-20.525	-5.7699
-19.450	-5.5866
-18.375	-5.4033
-17.300	-5.2200
-16.225	-5.0367
-15.306	-4.8535
-14.469	-4.6702
-13.633	-4.4869
-12.797	-4.3036
-11.960	-4.1203
-11.124	-3.9370
-10.046	-3.7537
-8.7447	-3.5704
-7.4433	-3.3872
-6.1130	-3.2039
-4.7751	-3.0206
-3.4372	-2.8373
-3.0367	-2.6540
-2.8158	-2.4707
-2.5949	-2.2807
-2.3740	-2.0975
-2.1531	-1.9143
-1.9322	-1.7312
-0.80381	-1.5480
1.3156	-1.3648
3.1389	-1.1816
3.8221	-0.99846
4.5054	-0.81529
5.1887	-0.63212
5.7563	-0.44894
6.2372	-0.26577
6.7181	-0.082599
7.1989	0.10057
8.5779	0.28375
10.325	0.46692
12.073	0.65009
12.581	0.83340
13.067	1.0178
13.553	1.2013
14.039	1.3848
14.487	1.5684
14.916	1.7519
15.345	1.9354
17.257	2.1190
19.263	2.3025
21.269	2.4860
22.410	2.6695
22.792	2.8531
23.173	3.0366
23.555	3.2201
23.936	3.4036
24.413	3.5872
25.996	3.7707
27.578	3.9541
29.160	4.1374
30.578	4.3208
31.403	4.5041
32.229	4.6874
33.054	4.8707
33.328	5.0541
33.473	5.2374
34.063	5.4207
35.640	5.6041
37.217	5.7874
38.795	5.9707
39.638	6.1540
40.130	6.3374
40.622	6.5207
41.114	6.7040
41.606	6.8874
42.231	7.0706
43.320	7.2539
44.409	7.4371
45.498	7.6204
46.587	7.8036
47.676	7.9869
48.699	8.1701
49.723	8.3523
50.746	8.5327
51.770	8.7163
52.515	8.8999
53.129	9.0834
53.744	9.2670
54.758	9.4505
56.828	9.6341
58.899	9.8176
59.377	9.9975
49.083	9.8717
45.685	9.7042
43.138	9.5237
42.055	9.3403
40.972	9.1569
39.889	8.9736
38.806	8.7902
37.723	8.6069
36.640	8.4235
35.558	8.2401
34.475	8.0568
33.392	7.8734
32.309	7.6901
31.226	7.5067
30.143	7.3234
29.061	7.1400
27.978	6.9566
26.895	6.7733
25.812	6.5899
24.729	6.4066
23.646	6.2232
22.564	6.0399
21.481	5.8565
20.398	5.6731
19.315	5.4898
18.232	5.3064
17.149	5.1231
16.066	4.9397
14.984	4.7563
13.901	4.5730
12.818	4.3896
11.735	4.2063
10.652	4.0229
9.5694	3.8396
8.4866	3.6562
7.4193	3.4728
6.4148	3.2895
5.4104	3.1061
4.4059	2.9228
3.4015	2.7394
2.3970	2.5561
1.3926	2.3727
0.38813	2.1893
-0.61632	2.0060
-1.6208	1.8226
-2.6252	1.6393
-3.7866	1.4559
-5.0011	1.2725
-6.0696	1.0892
-7.1380	0.90583
-8.2065	0.72247
-9.2749	0.53329
-10.343	0.35016
-11.412	0.16703
-12.480	-0.016097
-13.549	-0.19923
-14.617	-0.38236
-15.686	-0.56549
-16.754	-0.74862
-17.799	-0.93175
-18.798	-1.1149
-19.797	-1.2980
-20.796	-1.4811
-21.795	-1.6643
-22.794	-1.8475
-23.807	-2.0307
-24.873	-2.2139
-25.938	-2.3971
-27.004	-2.5803
-28.070	-2.7635
-29.135	-2.9469
-30.201	-3.1309
-31.267	-3.3149
-32.332	-3.4990
-33.398	-3.6823
-34.416	-3.8657
-35.411	-4.0491
-36.406	-4.2324
-37.401	-4.4158
-38.395	-4.5992
-39.390	-4.7825
-40.385	-4.9659
-41.380	-5.1493
-42.375	-5.3326
-43.369	-5.5160
-44.364	-5.6994
-45.359	-5.8827
-46.354	-6.0661
-47.599	-6.2495
-48.858	-6.4328
-50.118	-6.6162
-51.377	-6.7996
-52.637	-6.9829
-53.707	-7.1663
-54.705	-7.3497
-55.703	-7.5330
-56.701	-7.7164
-57.697	-7.8997
-58.692	-8.0830
-59.687	-8.2663
-60.683	-8.4496
-61.678	-8.6328
-62.673	-8.8161
-63.668	-8.9994
-64.663	-9.1826
-65.658	-9.3659
-66.653	-9.5492
-67.648	-9.7325
-68.815	-9.9157
-63.495	-9.9502
-41.993	-9.7830

File: C5.txt
Load (N)	Extension (mm)

5.6216	0.061035
5.6926	0.061035
2.1717	-0.013602
-5.2216	-0.27406
-9.6254	-0.80500
-13.161	-1.3407
-16.696	-1.8750
-20.232	-2.4049
-23.767	-2.9386
-27.124	-3.4703
-30.229	-4.0015
-33.335	-4.5319
-36.778	-5.0624
-40.258	-5.5929
-43.738	-6.1222
-47.218	-6.6534
-50.834	-7.1847
-54.498	-7.7159
-58.224	-8.2471
-62.274	-8.7784
-66.054	-9.3073
-69.835	-9.8360
-73.054	-10.367
-75.931	-10.897
-78.955	-11.428
-81.539	-11.959
-84.971	-12.490
-87.929	-13.021
-90.816	-13.552
-93.727	-14.083
-96.638	-14.613
-99.549	-15.144
-102.54	-15.674
-106.28	-16.205
-111.19	-16.735
-115.90	-17.266
-120.08	-17.796
-123.90	-18.327
-128.51	-18.857
-133.25	-19.388
-138.85	-19.918
-144.86	-20.448
-151.46	-20.979
-158.05	-21.509
-167.95	-22.040
-255.27	-22.568
-482.62	-23.091
-424.50	-22.989
-131.58	-22.480
-120.19	-21.949
-108.81	-21.419
-97.423	-20.888
-92.427	-20.358
-89.111	-19.827
-85.795	-19.297
-82.422	-18.766
-78.884	-18.236
-75.347	-17.705
-72.425	-17.175
-71.114	-16.644
-65.241	-16.114
-62.514	-15.583
-61.353	-15.053
-60.011	-14.522
-55.563	-13.991
-51.898	-13.460
-51.148	-12.929
-50.270	-12.402
-44.984	-11.871
-42.280	-11.340
-41.305	-10.809
-39.747	-10.277
-35.444	-9.7479
-33.133	-9.2177
-32.344	-8.6873
-29.035	-8.1569
-25.141	-7.6266
-24.256	-7.0960
-23.258	-6.5653
-17.756	-6.0347
-14.441	-5.5040
-13.042	-4.9734
-12.415	-4.4365
-7.5967	-3.9096
-6.4544	-3.3796
-5.2467	-2.8487
-1.6467	-2.3177
1.7795	-1.7868
3.0616	-1.2558
4.0832	-0.72489
9.2328	-0.19432
10.878	0.33589
11.529	0.86518
15.676	1.3959
18.518	1.9271
19.154	2.4582
22.705	2.9894
26.444	3.5205
27.742	4.0513
30.075	4.5819
34.393	5.1125
35.752	5.6431
38.699	6.1737
42.232	6.7043
44.131	7.2349
46.771	7.7655
50.764	8.2961
52.210	8.8258
54.553	9.3573
58.541	9.8885
61.457	10.420
63.484	10.951
66.828	11.482
70.461	12.012
72.907	12.542
75.578	13.072
79.634	13.602
81.741	14.132
84.671	14.662
89.776	15.193
91.703	15.724
93.630	16.255
97.479	16.785
101.75	17.316
103.82	17.847
106.19	18.377
111.44	18.906
115.94	19.437
117.37	19.968
120.92	20.499
126.18	21.030
129.09	21.561
130.20	22.092
135.57	22.623
140.94	23.153
144.08	23.684
146.33	24.215
151.70	24.745
156.64	25.276
159.57	25.807
163.30	26.336
170.75	26.866
174.34	27.396
176.08	27.927
181.35	28.458
189.64	28.989
193.42	29.520
196.32	30.051
200.97	30.582
208.74	31.112
211.74	31.643
215.72	32.173
224.17	32.703
232.40	33.234
237.43	33.764
247.90	34.295
261.48	34.825
277.00	35.356
291.19	35.886
300.68	36.417
315.95	36.947
341.31	37.477
351.25	38.007
370.02	38.537
409.26	39.066
454.37	39.595
463.91	39.931
326.46	39.412
281.33	38.881
255.28	38.351
238.45	37.820
224.18	37.290
213.63	36.760
206.26	36.229
198.89	35.699
193.04	35.168
187.43	34.638
181.82	34.107
177.23	33.577
172.69	33.045
168.15	32.514
163.92	31.983
159.92	31.452
155.92	30.921
151.93	30.390
147.93	29.859
144.23	29.328
140.58	28.798
136.93	28.267
133.28	27.737
129.63	27.206
125.98	26.676
122.33	26.145
118.68	25.615
115.16	25.085
111.79	24.554
108.42	24.024
105.05	23.494
101.68	22.963
98.303	22.432
94.997	21.896
91.810	21.365
88.623	20.834
85.436	20.304
82.250	19.774
79.063	19.243
75.876	18.713
72.689	18.182
69.638	17.652
66.904	17.121
63.926	16.592
60.949	16.062
57.972	15.532
54.995	15.003
52.018	14.471
49.040	13.939
46.063	13.407
43.086	12.879
40.109	12.348
37.133	11.818
34.193	11.287
31.253	10.757
28.313	10.226
25.401	9.6946
22.538	9.1634
19.675	8.6322
16.812	8.1010
13.949	7.5704
11.086	7.0400
8.2229	6.5097
5.3599	5.9794
2.4969	5.4491
-0.36614	4.9186
-3.3641	4.3878
-6.4006	3.8569
-9.4371	3.3261
-12.474	2.7955
-15.202	2.2649
-17.841	1.7344
-20.480	1.2029
-23.123	0.67111
-25.784	0.14036
-28.446	-0.39008
-31.107	-0.92051
-33.860	-1.4509
-36.650	-1.9814
-39.440	-2.5118
-42.230	-3.0423
-45.021	-3.5730
-47.731	-4.1037
-50.441	-4.6344
-53.150	-5.1651
-55.860	-5.6958
-58.310	-6.2265
-60.736	-6.7574
-63.162	-7.2884
-66.139	-7.8195
-69.579	-8.3505
-73.019	-8.8816
-76.192	-9.4128
-79.170	-9.9433
-82.178	-10.474
-85.263	-11.004
-89.004	-11.534
-92.160	-12.065
-94.754	-12.595
-99.984	-13.126
-103.86	-13.656
-107.73	-14.187
-111.61	-14.718
-115.49	-15.248
-119.51	-15.779
-123.86	-16.309
-128.73	-16.839
-133.66	-17.368
-140.37	-17.898
-146.49	-18.429
-151.16	-18.960
-155.82	-19.491
-162.38	-20.021
-173.19	-20.552
-188.06	-21.083
-212.15	-21.613
-253.90	-22.144
-318.17	-22.671
-479.81	-23.011
-323.12	-22.866