Folder: Senior-Flexonics/text_data (part 4)

File: C8.txt
Load (N)	Extension (mm)

21.353	1.8915
21.392	1.8915
15.253	1.6089
11.674	1.0669
8.2410	0.52087
5.2539	-0.021788
3.8030	-0.23021
1.2815	-0.75655
-1.7293	-1.2971
-4.7402	-1.8371
-7.7511	-2.3764
-10.762	-2.9158
-13.773	-3.4556
-16.784	-3.9957
-19.795	-4.5357
-22.805	-5.0759
-25.816	-5.6162
-28.827	-6.1567
-31.838	-6.6971
-34.849	-7.2363
-37.859	-7.7755
-40.868	-8.3147
-43.878	-8.8539
-46.887	-9.3931
-49.897	-9.9350
-52.906	-10.476
-55.845	-11.017
-58.663	-11.557
-61.480	-12.098
-64.297	-12.638
-67.343	-13.179
-70.440	-13.719
-73.340	-14.259
-76.217	-14.799
-79.093	-15.339
-81.969	-15.879
-84.845	-16.418
-87.721	-16.957
-90.597	-17.495
-93.847	-18.035
-97.152	-18.577
-100.46	-19.117
-103.79	-19.657
-108.29	-20.197
-112.08	-20.737
-115.87	-21.277
-119.66	-21.816
-123.93	-22.356
-130.43	-22.896
-150.70	-23.434
-209.66	-23.973
-312.67	-24.511
-461.23	-25.045
-480.97	-25.105
-237.85	-24.587
-126.21	-24.047
-120.40	-23.507
-114.59	-22.967
-108.78	-22.427
-102.97	-21.887
-97.165	-21.347
-76.603	-20.807
-74.463	-20.267
-71.575	-19.727
-67.323	-19.187
-66.169	-18.647
-65.016	-18.107
-59.822	-17.567
-58.480	-17.027
-57.139	-16.487
-53.018	-15.947
-49.007	-15.409
-47.070	-14.869
-45.568	-14.330
-39.009	-13.790
-37.893	-13.250
-37.211	-12.710
-34.602	-12.170
-29.326	-11.630
-28.321	-11.090
-27.560	-10.549
-23.541	-10.008
-20.182	-9.4676
-19.623	-8.9271
-17.842	-8.3880
-11.968	-7.8489
-11.039	-7.3065
-10.110	-6.7694
-6.0106	-6.2291
-2.7992	-5.6889
-1.7489	-5.1486
-0.23833	-4.6084
5.1334	-4.0682
6.6193	-3.5282
7.1040	-2.9881
11.714	-2.4467
16.617	-1.9072
17.493	-1.3676
18.369	-0.82812
22.398	-0.28855
25.237	0.25119
26.705	0.79094
29.055	1.3307
33.460	1.8704
35.065	2.4102
36.658	2.9500
40.335	3.4898
43.135	4.0296
45.647	4.5694
47.964	5.1092
51.165	5.6489
53.886	6.1893
56.152	6.7304
58.808	7.2708
61.664	7.8111
64.528	8.3515
67.590	8.8919
70.313	9.4323
73.551	9.9850
76.392	10.510
79.195	11.050
82.514	11.590
86.154	12.130
89.014	12.670
92.269	13.210
96.120	13.750
99.043	14.289
101.41	14.829
105.49	15.369
109.24	15.909
110.86	16.449
114.62	16.989
119.02	17.529
122.90	18.069
125.92	18.610
129.85	19.150
134.08	19.690
136.56	20.230
140.53	20.770
146.08	21.310
149.08	21.849
152.08	22.389
159.97	22.930
163.52	23.470
166.68	24.010
171.41	24.550
177.90	25.090
180.58	25.630
184.13	26.170
191.74	26.710
198.00	27.250
200.19	27.790
206.24	28.331
214.36	28.871
220.04	29.409
223.99	29.949
235.27	30.489
247.20	31.029
258.36	31.568
266.63	32.108
282.15	32.648
299.28	33.188
316.09	33.727
333.45	34.266
355.38	34.805
384.38	35.344
407.51	35.884
427.52	36.424
456.29	36.963
476.43	37.349
340.71	36.834
284.65	36.293
250.15	35.753
237.60	35.213
225.05	34.673
212.50	34.133
199.95	33.593
197.05	33.053
191.81	32.513
186.56	31.973
181.32	31.433
176.08	30.893
170.83	30.353
165.59	29.813
161.19	29.273
157.32	28.733
153.44	28.193
149.57	27.653
145.70	27.113
141.83	26.573
137.95	26.033
134.08	25.492
130.21	24.952
126.33	24.413
122.82	23.873
119.34	23.333
115.86	22.793
112.38	22.253
108.91	21.713
105.44	21.173
102.18	20.632
98.931	20.092
95.678	19.552
92.424	19.013
89.171	18.473
85.906	17.933
82.577	17.393
79.249	16.853
75.921	16.313
72.593	15.774
69.350	15.233
66.242	14.692
63.133	14.152
60.025	13.611
56.917	13.071
53.808	12.531
50.700	11.991
48.413	11.451
45.683	10.910
42.954	10.370
40.076	9.8304
37.096	9.2903
34.116	8.7503
31.152	8.2102
28.189	7.6702
25.227	7.1301
22.265	6.5900
19.302	6.0503
16.340	5.5106
13.377	4.9708
10.416	4.4309
7.4906	3.8910
4.5655	3.3512
1.6405	2.8113
-1.2845	2.2715
-4.2096	1.7316
-7.1346	1.1918
-9.8616	0.65190
-12.554	0.11204
-15.247	-0.42782
-17.940	-0.96768
-20.632	-1.5092
-23.325	-2.0500
-26.018	-2.5900
-28.853	-3.1299
-31.818	-3.6699
-34.783	-4.2099
-37.748	-4.7499
-40.713	-5.2898
-43.678	-5.8298
-46.643	-6.3698
-49.094	-6.9097
-51.427	-7.4496
-53.947	-7.9895
-56.605	-8.5294
-59.262	-9.0693
-61.920	-9.6092
-64.760	-10.149
-67.860	-10.689
-70.961	-11.229
-74.061	-11.770
-77.162	-12.311
-80.419	-12.850
-84.470	-13.390
-88.235	-13.930
-91.951	-14.470
-95.667	-15.010
-99.331	-15.550
-102.89	-16.089
-106.56	-16.629
-111.47	-17.169
-117.21	-17.709
-122.94	-18.249
-128.67	-18.789
-134.23	-19.329
-139.58	-19.869
-144.92	-20.409
-151.71	-20.946
-159.32	-21.486
-168.77	-22.026
-194.91	-22.565
-219.07	-23.105
-254.13	-23.645
-306.92	-24.183
-382.85	-24.720
-461.22	-25.058
-355.10	-24.914

File: C9 - 10.txt
Load (N)	Extension (mm)

18.742
18.743	0.28046
18.744	0.28046
18.746	0.28046
18.747	0.28046
17.055	0.26889
7.0155	0.11598
5.1832	-0.029560
6.3528	-0.034760
6.0685	-0.044051
2.8673	-0.20025
1.1368	-0.38061
-0.59362	-0.56509
-2.3241	-0.74957
-3.8347	-0.93476
-4.8426	-1.1206
-5.8505	-1.3064
-6.8584	-1.4916
-7.8663	-1.6759
-8.8742	-1.8601
-9.8821	-2.0443
-10.890	-2.2285
-11.898	-2.4127
-12.906	-2.5970
-13.914	-2.7813
-14.922	-2.9657
-15.930	-3.1499
-16.937	-3.3341
-17.945	-3.5183
-18.953	-3.7025
-19.961	-3.8865
-20.969	-4.0704
-21.977	-4.2543
-22.985	-4.4382
-23.993	-4.6221
-25.001	-4.8060
-26.008	-4.9899
-27.016	-5.1738
-28.024	-5.3576
-29.032	-5.5415
-30.040	-5.7254
-31.048	-5.9093
-32.056	-6.0932
-33.064	-6.2771
-34.109	-6.4610
-35.175	-6.6449
-36.240	-6.8288
-37.306	-7.0126
-38.372	-7.1965
-39.438	-7.3804
-40.504	-7.5642
-41.570	-7.7480
-42.636	-7.9318
-43.702	-8.1156
-44.768	-8.2994
-45.833	-8.4832
-46.899	-8.6670
-47.917	-8.8508
-48.807	-9.0346
-49.698	-9.2184
-50.588	-9.4022
-51.478	-9.5860
-52.365	-9.7698
-53.198	-9.9536
-39.788	-9.9999
-43.181	-10.007
-35.696	-9.9127
-34.852	-9.7358
-34.008	-9.5590
-33.164	-9.3822
-32.320	-9.1995
-31.476	-9.0155
-30.633	-8.8315
-29.789	-8.6475
-28.945	-8.4635
-28.101	-8.2795
-27.257	-8.0956
-26.413	-7.9116
-25.462	-7.7276
-24.457	-7.5436
-23.453	-7.3596
-22.448	-7.1756
-21.444	-6.9917
-20.439	-6.8077
-19.435	-6.6237
-18.430	-6.4397
-17.426	-6.2557
-15.834	-6.0717
-14.117	-5.8877
-13.152	-5.7038
-12.187	-5.5198
-11.222	-5.3358
-10.258	-5.1518
-9.2926	-4.9678
-8.3277	-4.7838
-7.3628	-4.5999
-6.3979	-4.4159
-5.4329	-4.2319
-4.4680	-4.0479
-3.5031	-3.8639
-2.5382	-3.6799
-1.5732	-3.4960
-0.60831	-3.3120
0.35662	-3.1280
1.3215	-2.9440
2.2865	-2.7600
3.2514	-2.5760
4.2163	-2.3920
5.1812	-2.2081
6.1462	-2.0241
7.3062	-1.8401
8.4738	-1.6493
9.6414	-1.4657
10.809	-1.2820
11.977	-1.0983
13.169	-0.91463
14.670	-0.73095
16.172	-0.54728
17.673	-0.36361
19.174	-0.17993
20.260	0.0037415
20.458	0.18742
20.655	0.37109
20.853	0.55476
22.273	0.73844
23.796	0.92340
25.319	1.1073
26.843	1.2913
28.366	1.4752
28.914	1.6591
29.070	1.8431
29.225	2.0270
29.381	2.2109
29.537	2.3949
29.795	2.5788
31.926	2.7627
34.058	2.9467
36.189	3.1306
37.322	3.3145
37.928	3.4985
38.535	3.6824
39.141	3.8663
39.747	4.0502
40.354	4.2341
41.653	4.4180
43.542	4.6018
45.431	4.7857
46.710	4.9696
46.948	5.1535
47.186	5.3374
47.424	5.5213
47.662	5.7052
47.900	5.8891
48.139	6.0728
49.594	6.2566
51.947	6.4404
54.299	6.6242
56.294	6.8080
56.642	6.9918
56.991	7.1756
57.340	7.3594
57.688	7.5432
58.037	7.7270
58.386	7.9108
59.049	8.0946
61.386	8.2754
63.722	8.4683
66.059	8.6539
66.792	8.8368
67.023	9.0196
67.253	9.2025
67.484	9.3854
67.715	9.5682
67.946	9.7511
69.689	9.9338
58.830	9.9446
54.820	9.7551
53.172	9.5825
51.524	9.4098
49.875	9.2348
48.227	9.0508
46.579	8.8668
44.931	8.6828
43.282	8.4988
41.919	8.3148
40.897	8.1307
39.874	7.9467
38.851	7.7627
37.829	7.5787
36.806	7.3947
35.783	7.2107
34.761	7.0267
33.738	6.8427
32.716	6.6587
31.693	6.4747
30.670	6.2907
29.648	6.1067
28.625	5.9227
27.602	5.7387
26.580	5.5547
25.557	5.3707
24.535	5.1867
23.512	5.0027
22.489	4.8187
21.467	4.6347
20.444	4.4507
19.421	4.2667
18.399	4.0827
17.376	3.8987
16.354	3.7094
15.331	3.5254
14.308	3.3414
13.286	3.1574
12.263	2.9734
11.240	2.7894
10.218	2.6054
9.1952	2.4214
8.1725	2.2374
7.1499	2.0534
6.1273	1.8695
5.1047	1.6855
4.0820	1.5015
3.0594	1.3175
2.0368	1.1335
1.0141	0.94949
-0.0084804	0.76550
-1.0311	0.58151
-2.0537	0.39752
-3.0764	0.21352
-4.0990	0.029531
-5.1216	-0.15178
-6.1442	-0.33576
-7.1669	-0.51975
-8.1895	-0.70374
-9.2121	-0.88772
-10.235	-1.0717
-11.257	-1.2557
-12.280	-1.4397
-13.303	-1.6237
-14.325	-1.8077
-15.348	-1.9916
-16.371	-2.1756
-17.366	-2.3596
-18.360	-2.5436
-19.354	-2.7276
-20.347	-2.9116
-21.341	-3.0956
-22.335	-3.2795
-23.328	-3.4635
-24.322	-3.6475
-25.316	-3.8315
-26.310	-4.0155
-27.303	-4.1995
-28.297	-4.3833
-29.291	-4.5672
-30.284	-4.7510
-31.278	-4.9349
-32.272	-5.1187
-33.266	-5.3025
-34.259	-5.4864
-35.253	-5.6702
-36.247	-5.8541
-37.240	-6.0379
-38.234	-6.2218
-39.191	-6.4056
-40.112	-6.5895
-41.034	-6.7733
-41.955	-6.9572
-42.876	-7.1410
-43.798	-7.3249
-44.719	-7.5087
-45.641	-7.6926
-46.594	-7.8764
-47.603	-8.0603
-48.613	-8.2441
-49.622	-8.4279
-50.632	-8.6118
-51.641	-8.7956
-52.651	-8.9795
-53.660	-9.1633
-54.670	-9.3472
-55.679	-9.5310
-56.689	-9.7151
-57.699	-9.9000
-51.869	-9.9768
-34.138	-9.7973

File: C9.txt
Load (N)	Extension (mm)

0.20448	-0.046387
0.23590	-0.046387
5.2123	0.031416
-4.1259	0.098857
-9.4434	-0.40929
-12.522	-0.94274
-15.600	-1.4763
-18.678	-2.0100
-21.757	-2.5403
-24.835	-3.0688
-27.914	-3.5990
-30.992	-4.1281
-34.070	-4.6573
-37.149	-5.1864
-40.183	-5.7155
-43.157	-6.2446
-46.132	-6.7737
-49.106	-7.3029
-52.081	-7.8320
-55.055	-8.3605
-58.030	-8.8891
-61.059	-9.4177
-64.109	-9.9462
-67.159	-10.475
-70.209	-11.003
-73.259	-11.532
-76.326	-12.061
-79.496	-12.590
-82.665	-13.119
-85.835	-13.648
-89.005	-14.177
-91.999	-14.706
-94.898	-15.236
-97.798	-15.765
-100.70	-16.295
-103.78	-16.823
-107.25	-17.352
-110.71	-17.881
-114.20	-18.409
-120.06	-18.938
-129.84	-19.466
-139.59	-19.992
-145.10	-20.520
-150.33	-21.049
-185.17	-21.577
-240.51	-22.106
-318.52	-22.633
-392.46	-23.160
-454.76	-23.685
-521.06	-23.893
-210.03	-23.400
-116.40	-22.871
-114.14	-22.342
-111.89	-21.813
-109.63	-21.284
-107.38	-20.756
-105.12	-20.227
-102.86	-19.698
-80.275	-19.169
-77.367	-18.640
-74.459	-18.111
-70.857	-17.582
-67.865	-17.054
-65.959	-16.525
-65.069	-15.996
-60.184	-15.468
-58.306	-14.939
-56.847	-14.410
-54.152	-13.881
-48.692	-13.352
-47.406	-12.822
-46.121	-12.296
-41.114	-11.766
-38.157	-11.237
-36.791	-10.708
-34.608	-10.179
-30.749	-9.6504
-27.559	-9.1218
-25.758	-8.5932
-24.598	-8.0645
-19.644	-7.5351
-17.471	-7.0031
-15.298	-6.4765
-13.702	-5.9491
-8.5798	-5.4202
-6.5874	-4.8913
-4.5949	-4.3624
-3.7015	-3.8333
0.094953	-3.3038
2.4942	-2.7743
3.6503	-2.2422
5.1160	-1.7138
11.322	-1.1855
12.224	-0.65718
13.660	-0.12865
18.961	0.40015
19.651	0.92896
22.011	1.4578
25.328	1.9866
25.845	2.5154
31.228	3.0442
32.704	3.5730
37.262	4.1018
40.323	4.6306
43.133	5.1593
43.430	5.6876
48.303	6.2159
51.783	6.7442
53.582	7.2726
54.717	7.8018
58.677	8.3315
61.790	8.8611
63.689	9.3893
68.953	9.9153
70.573	10.454
72.990	10.973
78.600	11.502
81.332	12.031
83.856	12.560
86.380	13.090
88.904	13.619
93.849	14.148
97.125	14.677
97.602	15.206
101.01	15.735
104.57	16.264
107.70	16.793
110.17	17.322
114.72	17.851
119.51	18.380
124.05	18.909
126.58	19.439
129.49	19.969
134.01	20.498
136.24	21.027
138.34	21.556
144.41	22.085
146.92	22.614
149.43	23.143
152.38	23.671
156.22	24.199
159.59	24.727
163.20	25.256
169.44	25.785
173.15	26.314
176.85	26.843
184.21	27.371
187.42	27.900
190.63	28.429
193.84	28.958
201.54	29.486
211.97	30.015
218.07	30.544
223.83	31.073
229.53	31.602
238.39	32.131
247.25	32.660
257.05	33.189
266.90	33.717
276.75	34.245
285.65	34.774
309.75	35.304
331.38	35.832
352.02	36.361
373.98	36.889
408.61	37.417
450.55	37.945
493.61	38.458
329.10	37.931
265.00	37.403
244.61	36.874
230.17	36.346
215.73	35.818
201.29	35.289
200.14	34.761
194.70	34.233
189.25	33.704
183.81	33.175
178.37	32.646
172.92	32.118
167.48	31.589
160.91	31.060
156.84	30.531
153.06	30.002
149.29	29.474
145.51	28.945
141.74	28.416
137.97	27.887
134.19	27.358
130.42	26.829
126.65	26.300
122.87	25.771
119.39	25.242
115.96	24.713
112.54	24.184
109.11	23.655
105.69	23.126
102.26	22.597
98.836	22.067
95.411	21.538
91.986	21.009
88.707	20.480
85.494	19.952
82.281	19.423
79.067	18.894
75.854	18.365
72.658	17.836
69.544	17.307
66.430	16.778
63.316	16.249
60.220	15.721
57.321	15.192
54.422	14.663
51.523	14.134
48.624	13.603
45.725	13.073
42.826	12.546
39.927	12.018
37.028	11.489
34.179	10.959
31.331	10.429
28.483	9.8997
25.636	9.3709
22.788	8.8421
19.940	8.3132
17.092	7.7844
14.250	7.2555
11.460	6.7267
8.6705	6.1978
5.8806	5.6690
3.0907	5.1403
0.30073	4.6113
-2.4892	4.0818
-5.2791	3.5523
-8.1290	3.0232
-10.989	2.4940
-13.850	1.9648
-16.710	1.4389
-19.441	0.90992
-22.111	0.38099
-24.782	-0.14794
-27.452	-0.67687
-30.122	-1.2058
-32.792	-1.7347
-35.445	-2.2637
-38.083	-2.7926
-40.721	-3.3215
-43.360	-3.8511
-46.010	-4.3808
-48.708	-4.9097
-51.407	-5.4386
-54.105	-5.9674
-56.799	-6.4963
-59.339	-7.0252
-61.880	-7.5539
-64.596	-8.0824
-67.435	-8.6110
-70.274	-9.1395
-73.113	-9.6681
-75.952	-10.197
-78.791	-10.727
-81.631	-11.256
-84.470	-11.785
-87.309	-12.315
-90.510	-12.844
-93.779	-13.373
-96.128	-13.902
-99.213	-14.431
-102.30	-14.960
-105.92	-15.489
-109.62	-16.017
-113.31	-16.546
-117.00	-17.075
-120.68	-17.604
-124.35	-18.133
-128.71	-18.662
-133.32	-19.191
-137.76	-19.720
-142.16	-20.249
-146.65	-20.778
-168.82	-21.307
-191.45	-21.836
-238.11	-22.364
-313.15	-22.888
-386.36	-23.413
-459.05	-23.728
-335.74	-23.592

File: C10 - 10.txt
Load (N)	Extension (mm)

39.888
39.880	3.5098
39.871	3.5098
39.862	3.5098
39.854	3.5079
30.067	3.3639
27.002	3.1767
24.327	2.9810
22.479	2.7843
21.240	2.5877
19.473	2.3917
18.541	2.1956
17.048	1.9996
15.837	1.8043
14.626	1.6100
13.416	1.4141
12.205	1.2190
10.995	1.0239
9.7840	0.82878
8.6249	0.63369
7.5463	0.43866
6.4677	0.24366
5.3892	0.048666
5.2179	-0.094200
8.9129	-0.091297
5.2448	-0.14560
3.1102	-0.32041
2.0358	-0.51507
0.96128	-0.70972
-0.11319	-0.90438
-1.1877	-1.0990
-2.2621	-1.2937
-3.3366	-1.4883
-4.4111	-1.6830
-5.4856	-1.8777
-6.5600	-2.0723
-7.6345	-2.2670
-8.7090	-2.4616
-9.7834	-2.6563
-10.858	-2.8509
-11.932	-3.0456
-13.007	-3.2402
-14.081	-3.4349
-15.156	-3.6296
-16.230	-3.8242
-17.305	-4.0189
-18.379	-4.2135
-19.454	-4.4082
-20.528	-4.6029
-21.603	-4.7977
-22.677	-4.9925
-23.752	-5.1872
-24.826	-5.3820
-25.901	-5.5768
-26.975	-5.7715
-28.049	-5.9656
-29.124	-6.1596
-30.198	-6.3536
-31.273	-6.5484
-32.347	-6.7432
-33.422	-6.9379
-34.496	-7.1327
-35.560	-7.3274
-36.624	-7.5222
-37.687	-7.7169
-38.751	-7.9117
-39.802	-8.1065
-40.853	-8.3012
-41.903	-8.4960
-42.954	-8.6907
-44.005	-8.8855
-45.055	-9.0803
-46.106	-9.2750
-47.157	-9.4698
-48.207	-9.6645
-49.258	-9.8593
-50.234	-10.028
-37.156	-10.006
-34.956	-9.9553
-31.483	-9.7728
-29.760	-9.5864
-28.038	-9.3988
-26.315	-9.2040
-24.592	-9.0093
-22.870	-8.8146
-22.061	-8.6198
-21.318	-8.4251
-20.575	-8.2303
-19.832	-8.0356
-19.089	-7.8408
-18.345	-7.6461
-17.393	-7.4513
-16.364	-7.2566
-15.334	-7.0618
-14.305	-6.8671
-13.276	-6.6723
-12.246	-6.4776
-11.217	-6.2828
-10.188	-6.0881
-9.1581	-5.8933
-8.1288	-5.6986
-7.0994	-5.5038
-6.0700	-5.3091
-5.0406	-5.1143
-4.0112	-4.9196
-2.9818	-4.7248
-1.9524	-4.5301
-0.92304	-4.3354
0.10635	-4.1406
1.1357	-3.9459
2.1651	-3.7511
3.2064	-3.5564
4.2500	-3.3616
5.2936	-3.1669
6.3371	-2.9721
7.3807	-2.7774
8.4209	-2.5826
9.4082	-2.3879
10.395	-2.1931
11.383	-1.9984
12.370	-1.8036
13.357	-1.6089
14.344	-1.4140
15.332	-1.2192
16.319	-1.0243
17.306	-0.82945
18.294	-0.63460
19.281	-0.43975
20.268	-0.24490
21.255	-0.050043
22.243	0.14481
23.230	0.33966
24.217	0.53452
25.253	0.72937
26.370	0.92422
27.488	1.1191
28.605	1.3139
29.722	1.5088
30.839	1.7035
32.014	1.8982
33.227	2.0928
34.440	2.2874
35.652	2.4820
36.865	2.6767
38.304	2.8713
39.850	3.0659
41.395	3.2605
42.913	3.4551
43.830	3.6498
44.746	3.8444
45.663	4.0390
46.579	4.2336
47.496	4.4283
48.413	4.6229
49.329	4.8175
50.246	5.0121
51.163	5.2068
52.262	5.4023
53.615	5.5978
54.969	5.7931
56.322	5.9879
57.395	6.1827
57.954	6.3774
58.513	6.5722
59.073	6.7670
60.328	6.9618
61.858	7.1566
63.388	7.3514
64.918	7.5462
66.448	7.7407
67.816	7.9352
68.299	8.1296
68.782	8.3241
69.265	8.5185
69.749	8.7130
70.263	8.9074
72.203	9.1022
74.144	9.2972
75.943	9.4921
77.298	9.6871
78.653	9.8820
75.708	9.9695
61.309	9.7727
59.444	9.5980
57.578	9.4052
55.712	9.2104
53.846	9.0156
51.981	8.8208
50.115	8.6260
48.665	8.4312
47.564	8.2364
46.463	8.0416
45.361	7.8468
44.260	7.6520
43.158	7.4572
42.057	7.2624
40.955	7.0676
39.854	6.8728
38.752	6.6780
37.651	6.4832
36.549	6.2884
35.448	6.0936
34.346	5.8989
33.245	5.7041
32.143	5.5093
31.042	5.3145
29.940	5.1197
28.839	4.9249
27.737	4.7301
26.636	4.5353
25.534	4.3405
24.433	4.1457
23.331	3.9509
22.230	3.7561
21.129	3.5613
20.027	3.3665
18.926	3.1717
17.824	2.9769
16.723	2.7821
15.621	2.5873
14.520	2.3925
13.418	2.1977
12.317	2.0028
11.215	1.8080
10.114	1.6131
9.0123	1.4183
7.9228	1.2234
6.8583	1.0286
5.7938	0.83373
4.7292	0.63889
3.6647	0.44404
2.6002	0.24919
1.5357	0.054344
0.47116	-0.14050
-0.59336	-0.33535
-1.6579	-0.53020
-2.7224	-0.72504
-3.7869	-0.91989
-4.8514	-1.1147
-5.9160	-1.3096
-6.9805	-1.5044
-8.0450	-1.6988
-9.1095	-1.8930
-10.174	-2.0872
-11.239	-2.2815
-12.309	-2.4760
-13.385	-2.6705
-14.461	-2.8649
-15.537	-3.0594
-16.613	-3.2539
-17.689	-3.4484
-18.765	-3.6429
-19.841	-3.8374
-20.917	-4.0319
-21.994	-4.2264
-23.070	-4.4216
-24.146	-4.6170
-25.222	-4.8124
-26.298	-5.0077
-27.374	-5.2027
-28.450	-5.3972
-29.526	-5.5916
-30.594	-5.7860
-31.660	-5.9804
-32.726	-6.1748
-33.792	-6.3692
-34.858	-6.5636
-35.925	-6.7581
-36.991	-6.9530
-38.057	-7.1478
-39.123	-7.3426
-40.189	-7.5375
-41.255	-7.7323
-42.321	-7.9271
-43.387	-8.1220
-44.454	-8.3168
-45.520	-8.5116
-46.586	-8.7065
-47.652	-8.9013
-48.718	-9.0961
-49.784	-9.2910
-50.850	-9.4858
-51.916	-9.6806
-52.982	-9.8755
-52.653	-9.9771
-30.803	-9.7872
-30.519	-9.7598

File: C10.txt
Load (N)	Extension (mm)

39.894	3.5931
39.935	3.5931
28.788	3.3862
22.345	2.8419
18.707	2.2929
15.067	1.7451
11.894	1.1998
8.7211	0.65306
5.5483	0.10697
5.2822	-0.11150
0.76998	-0.60092
-2.3008	-1.1461
-5.3716	-1.6914
-8.4423	-2.2366
-11.513	-2.7819
-14.584	-3.3271
-17.655	-3.8723
-20.725	-4.4176
-23.796	-4.9628
-26.867	-5.5080
-29.938	-6.0530
-33.009	-6.5976
-36.079	-7.1423
-39.150	-7.6870
-42.221	-8.2320
-45.292	-8.7773
-48.362	-9.3227
-49.800	-9.8680
-52.783	-10.413
-55.767	-10.959
-58.751	-11.504
-61.735	-12.049
-64.719	-12.595
-67.702	-13.140
-70.749	-13.685
-74.231	-14.230
-77.701	-14.775
-81.019	-15.320
-84.337	-15.864
-87.741	-16.409
-91.181	-16.954
-94.622	-17.498
-97.985	-18.043
-101.24	-18.588
-104.49	-19.132
-107.74	-19.679
-111.23	-20.224
-114.96	-20.769
-118.86	-21.314
-122.84	-21.859
-126.65	-22.404
-130.49	-22.948
-145.92	-23.493
-315.49	-24.032
-527.83	-24.450
-295.75	-24.166
-125.14	-23.633
-84.793	-23.088
-66.945	-22.543
-64.693	-21.999
-62.440	-21.454
-60.187	-20.909
-57.934	-20.364
-71.010	-19.819
-68.652	-19.276
-66.295	-18.732
-63.937	-18.187
-58.622	-17.641
-56.149	-17.096
-54.221	-16.551
-51.884	-16.006
-47.912	-15.461
-45.759	-14.916
-44.787	-14.372
-39.743	-13.827
-36.552	-13.282
-34.785	-12.737
-31.870	-12.192
-28.594	-11.647
-25.952	-11.101
-25.198	-10.556
-19.858	-10.011
-17.927	-9.4658
-16.256	-8.9206
-13.960	-8.3740
-8.7205	-7.8288
-7.1982	-7.2836
-7.4769	-6.7384
-2.1359	-6.1932
0.65102	-5.6454
0.76710	-5.1014
4.2638	-4.5575
9.6077	-4.0136
10.689	-3.4691
11.740	-2.9242
17.814	-2.3793
19.373	-1.8344
20.593	-1.2895
22.963	-0.73742
26.852	-0.19686
27.988	0.34590
30.150	0.89098
35.230	1.4361
36.334	1.9812
37.439	2.5262
43.309	3.0713
46.009	3.6164
47.141	4.1615
50.113	4.7068
53.437	5.2521
56.475	5.7974
60.324	6.3427
61.671	6.8833
63.906	7.4360
68.610	7.9771
71.292	8.5222
72.531	9.0672
76.697	9.6123
80.544	10.157
81.319	10.702
84.867	11.247
90.779	11.793
91.999	12.338
92.894	12.883
97.999	13.428
103.05	13.973
102.91	14.519
106.44	15.064
111.84	15.609
114.75	16.154
116.91	16.700
120.28	17.245
125.69	17.790
127.84	18.336
130.75	18.881
137.44	19.426
139.75	19.972
142.07	20.517
149.40	21.062
152.47	21.608
155.17	22.152
159.72	22.697
168.66	23.241
170.01	23.786
172.02	24.331
181.11	24.877
186.50	25.422
187.91	25.967
191.63	26.512
201.72	27.057
207.52	27.603
210.27	28.148
216.63	28.693
227.49	29.238
231.46	29.783
234.28	30.328
242.06	30.870
252.51	31.415
258.40	31.961
267.40	32.507
280.84	33.052
294.31	33.597
307.50	34.142
320.93	34.687
336.02	35.232
348.03	35.773
363.33	36.318
389.04	36.862
416.98	37.407
457.19	37.951
409.54	38.106
319.41	37.586
271.67	37.041
246.06	36.496
236.30	35.951
226.55	35.406
216.79	34.861
207.03	34.316
199.51	33.771
197.86	33.225
192.78	32.680
187.70	32.135
182.62	31.590
177.54	31.045
172.46	30.500
167.66	29.955
163.37	29.410
159.07	28.864
154.78	28.319
150.49	27.774
146.19	27.229
142.45	26.684
138.81	26.139
135.17	25.594
131.52	25.049
127.88	24.503
124.24	23.960
120.60	23.415
116.95	22.869
113.31	22.326
109.85	21.777
106.47	21.233
103.09	20.688
99.705	20.144
96.324	19.599
92.944	19.054
89.563	18.510
86.183	17.964
82.802	17.419
79.533	16.874
76.368	16.328
73.204	15.783
70.039	15.238
66.877	14.694
63.734	14.150
60.591	13.603
57.448	13.058
54.305	12.512
51.162	11.967
48.019	11.422
44.876	10.876
41.733	10.331
38.590	9.7860
35.588	9.2408
32.599	8.6956
29.610	8.1504
26.621	7.6051
23.632	7.0600
20.643	6.5151
17.654	5.9701
14.665	5.4252
11.677	4.8802
8.6879	4.3353
5.7009	3.7904
2.7138	3.2455
-0.27319	2.7006
-3.2602	2.1558
-6.1974	1.6109
-9.0571	1.0660
-11.917	0.52011
-14.777	-0.027386
-17.636	-0.57241
-20.496	-1.1174
-23.356	-1.6624
-26.216	-2.2075
-29.075	-2.7525
-31.935	-3.2976
-34.850	-3.8427
-37.813	-4.3878
-40.777	-4.9329
-43.740	-5.4779
-47.116	-6.0229
-50.315	-6.5680
-52.692	-7.1130
-55.386	-7.6580
-58.080	-8.2031
-61.044	-8.7483
-64.192	-9.2937
-67.340	-9.8391
-70.488	-10.385
-73.636	-10.930
-76.916	-11.475
-80.310	-12.021
-83.720	-12.566
-87.131	-13.111
-90.541	-13.656
-94.663	-14.201
-98.873	-14.746
-103.08	-15.291
-107.15	-15.835
-111.21	-16.379
-115.27	-16.924
-119.50	-17.469
-123.82	-18.014
-128.25	-18.558
-132.58	-19.103
-136.60	-19.648
-140.62	-20.193
-147.20	-20.738
-153.09	-21.283
-161.09	-21.828
-179.33	-22.373
-200.53	-22.918
-256.33	-23.462
-361.00	-24.002
-469.29	-24.345
-332.64	-24.202