Folder: Senior-Flexonics/text_data (part 3)

File: C6 - 10.txt
Load (N)	Extension (mm)

2.8066
2.8100	-0.057373
2.8134	-0.057373
2.8168	-0.057373
2.8202	-0.057373
5.5802	-0.016320
-1.3272	-0.018599
-2.3410	-0.021973
-3.5318	-0.067820
-7.1838	-0.23834
-9.1706	-0.41493
-11.157	-0.59704
-13.144	-0.78246
-14.597	-0.96826
-15.681	-1.1526
-16.764	-1.3368
-17.848	-1.5209
-18.931	-1.7046
-20.015	-1.8880
-21.098	-2.0715
-22.182	-2.2548
-23.265	-2.4379
-24.349	-2.6209
-25.432	-2.8040
-26.516	-2.9870
-27.599	-3.1701
-28.683	-3.3531
-29.766	-3.5362
-30.850	-3.7191
-31.933	-3.9019
-33.017	-4.0847
-34.100	-4.2675
-35.183	-4.4503
-36.267	-4.6331
-37.350	-4.8159
-38.434	-4.9987
-39.517	-5.1815
-40.601	-5.3644
-41.684	-5.5472
-42.768	-5.7300
-43.849	-5.9130
-44.863	-6.0961
-45.876	-6.2792
-46.890	-6.4623
-47.904	-6.6454
-48.918	-6.8285
-49.958	-7.0116
-51.051	-7.1947
-52.143	-7.3778
-53.236	-7.5609
-54.328	-7.7440
-55.420	-7.9271
-56.513	-8.1099
-57.605	-8.2924
-58.697	-8.4749
-59.790	-8.6574
-60.882	-8.8399
-61.783	-9.0224
-62.655	-9.2049
-63.527	-9.3874
-64.399	-9.5699
-65.264	-9.7535
-66.125	-9.9375
-62.823	-10.004
-61.814	-10.004
-55.014	-9.8975
-47.210	-9.7313
-46.399	-9.5485
-45.587	-9.3656
-44.775	-9.1827
-43.964	-8.9998
-43.152	-8.8169
-42.341	-8.6340
-41.504	-8.4512
-40.589	-8.2683
-39.675	-8.0854
-38.760	-7.9025
-37.846	-7.7196
-36.931	-7.5368
-36.017	-7.3539
-35.083	-7.1710
-34.137	-6.9881
-33.192	-6.8052
-32.246	-6.6223
-31.301	-6.4395
-30.355	-6.2566
-29.410	-6.0737
-28.464	-5.8908
-27.519	-5.7079
-26.493	-5.5250
-25.284	-5.3422
-24.074	-5.1593
-22.864	-4.9764
-21.785	-4.7935
-20.877	-4.6106
-19.969	-4.4278
-19.062	-4.2449
-18.154	-4.0620
-17.247	-3.8791
-16.339	-3.6962
-15.431	-3.5133
-14.524	-3.3305
-13.616	-3.1476
-12.709	-2.9647
-11.801	-2.7818
-10.893	-2.5989
-9.9546	-2.4161
-8.9071	-2.2332
-7.8595	-2.0504
-6.8060	-1.8676
-5.5826	-1.6847
-4.3592	-1.5019
-3.3577	-1.3191
-2.4275	-1.1362
-1.0853	-0.95340
0.42743	-0.77057
1.9402	-0.58774
3.4529	-0.40491
4.8031	-0.22207
5.2504	-0.039243
5.6978	0.14359
5.8887	0.32588
6.0748	0.50743
6.8218	0.68898
7.8216	0.87053
9.6596	1.0530
11.498	1.2363
13.336	1.4195
14.663	1.6028
15.084	1.7860
15.506	1.9693
15.927	2.1525
16.349	2.3358
16.770	2.5190
17.883	2.7023
19.341	2.8855
20.798	3.0688
22.256	3.2520
23.714	3.4353
24.003	3.6181
24.140	3.8009
24.277	3.9838
24.414	4.1666
25.145	4.3494
26.346	4.5322
27.634	4.7150
29.139	4.8978
30.645	5.0806
32.062	5.2634
32.607	5.4464
33.152	5.6294
33.871	5.8124
34.710	5.9954
35.550	6.1784
36.669	6.3613
38.207	6.5443
39.746	6.7273
41.285	6.9110
42.824	7.0938
43.871	7.2767
44.827	7.4596
45.726	7.6424
46.161	7.8253
46.596	8.0082
47.032	8.1894
47.479	8.3725
48.867	8.5536
50.254	8.7360
51.641	8.9188
53.029	9.1049
54.412	9.2879
54.356	9.4708
54.300	9.6538
54.243	9.8367
54.672	10.009
44.609	9.8211
41.725	9.6506
38.842	9.4800
37.241	9.2977
36.151	9.1148
35.060	8.9319
33.970	8.7490
32.880	8.5660
31.789	8.3831
30.699	8.2002
29.608	8.0172
28.518	7.8343
27.427	7.6514
26.337	7.4684
25.246	7.2855
24.156	7.1026
23.065	6.9197
21.975	6.7367
20.884	6.5538
19.794	6.3709
18.703	6.1879
17.613	6.0050
16.522	5.8221
15.432	5.6391
14.341	5.4562
13.260	5.2733
12.191	5.0903
11.122	4.9074
10.053	4.7245
8.9846	4.5416
7.9158	4.3586
6.8471	4.1757
5.7784	3.9928
4.7096	3.8098
3.6409	3.6269
2.5721	3.4440
1.5034	3.2610
0.43463	3.0781
-0.63412	2.8952
-1.7029	2.7123
-2.7606	2.5293
-3.7508	2.3464
-4.7410	2.1635
-5.7312	1.9805
-6.7214	1.7976
-7.7116	1.6147
-8.7018	1.4317
-9.6920	1.2488
-10.682	1.0659
-11.672	0.88295
-12.663	0.70015
-13.653	0.51744
-14.643	0.33473
-15.633	0.15202
-16.625	-0.030687
-17.705	-0.21340
-18.784	-0.39611
-19.864	-0.57881
-20.910	-0.76152
-21.934	-0.94423
-22.958	-1.1269
-23.982	-1.3097
-25.007	-1.4924
-26.031	-1.6751
-27.055	-1.8578
-28.079	-2.0405
-29.074	-2.2232
-30.025	-2.4059
-30.976	-2.5886
-31.926	-2.7713
-32.877	-2.9564
-33.828	-3.1410
-34.779	-3.3239
-35.730	-3.5068
-36.684	-3.6897
-37.648	-3.8725
-38.613	-4.0554
-39.578	-4.2383
-40.542	-4.4212
-41.507	-4.6040
-42.471	-4.7869
-43.436	-4.9698
-44.401	-5.1527
-45.365	-5.3356
-46.344	-5.5184
-47.382	-5.7013
-48.421	-5.8842
-49.460	-6.0671
-50.498	-6.2499
-51.537	-6.4328
-52.576	-6.6157
-53.614	-6.7986
-54.653	-6.9814
-55.692	-7.1643
-56.730	-7.3472
-57.769	-7.5301
-58.808	-7.7129
-59.846	-7.8958
-60.885	-8.0787
-61.924	-8.2617
-62.836	-8.4448
-63.607	-8.6278
-64.379	-8.8108
-65.162	-8.9938
-66.124	-9.1768
-67.085	-9.3599
-68.047	-9.5429
-69.009	-9.7259
-69.971	-9.9089
-64.241	-9.9503
-47.452	-9.7771

File: C6.txt
Load (N)	Extension (mm)

3.6115	-0.064087
3.6398	-0.064087
8.5678	-0.0041677
-3.3742	-0.10225
-10.188	-0.59985
-15.388	-1.1202
-18.461	-1.6425
-21.534	-2.1606
-24.607	-2.6789
-27.679	-3.1976
-30.752	-3.7154
-33.825	-4.2337
-36.898	-4.7510
-39.971	-5.2678
-43.044	-5.7851
-46.094	-6.3031
-49.109	-6.8211
-52.123	-7.3391
-55.138	-7.8571
-58.153	-8.3750
-61.168	-8.8917
-63.262	-9.4086
-66.243	-9.9255
-69.302	-10.443
-72.361	-10.959
-75.420	-11.476
-78.479	-11.994
-81.538	-12.511
-84.641	-13.029
-87.802	-13.546
-90.963	-14.063
-94.124	-14.581
-97.284	-15.098
-100.18	-15.616
-103.03	-16.133
-106.24	-16.651
-109.80	-17.168
-113.36	-17.685
-116.92	-18.203
-120.48	-18.720
-123.76	-19.238
-127.00	-19.755
-130.53	-20.271
-134.59	-20.788
-141.83	-21.305
-188.26	-21.822
-410.84	-22.333
-500.76	-22.423
-167.52	-21.924
-126.42	-21.416
-108.48	-20.899
-95.444	-20.382
-92.730	-19.865
-90.015	-19.348
-87.301	-18.830
-84.587	-18.313
-81.872	-17.796
-79.204	-17.279
-76.557	-16.762
-73.514	-16.244
-68.799	-15.727
-66.008	-15.210
-65.019	-14.688
-62.740	-14.171
-58.203	-13.654
-54.709	-13.137
-54.907	-12.620
-54.743	-12.102
-49.226	-11.585
-45.045	-11.068
-44.929	-10.550
-43.537	-10.033
-38.153	-9.5156
-33.385	-8.9988
-31.326	-8.4820
-31.439	-7.9652
-29.778	-7.4484
-24.146	-6.9273
-23.159	-6.4099
-23.472	-5.8925
-18.461	-5.3751
-15.357	-4.8577
-13.931	-4.3400
-13.854	-3.8227
-8.7605	-3.3054
-7.4101	-2.7881
-6.8265	-2.2708
-0.76739	-1.7536
1.0784	-1.2363
2.3866	-0.71898
6.2724	-0.20169
8.8190	0.31664
9.4340	0.83288
13.101	1.3495
18.640	1.8668
18.886	2.3841
19.796	2.9014
24.307	3.4186
26.570	3.9359
26.808	4.4532
29.729	4.9705
33.928	5.4902
35.373	6.0075
37.871	6.5247
42.495	7.0420
45.509	7.5593
47.156	8.0765
49.786	8.6105
53.574	9.1122
55.803	9.6295
55.632	10.147
61.526	10.664
64.094	11.181
64.929	11.699
69.170	12.216
73.664	12.733
74.821	13.247
76.995	13.764
83.263	14.281
84.437	14.798
85.611	15.316
90.476	15.833
93.168	16.350
94.660	16.868
97.569	17.385
103.00	17.902
105.35	18.420
106.25	18.937
110.80	19.454
115.79	19.971
116.31	20.488
117.70	21.007
124.95	21.526
128.40	22.044
128.97	22.561
135.02	23.078
140.94	23.595
142.94	24.112
145.01	24.630
152.26	25.147
156.43	25.664
157.43	26.181
162.66	26.698
170.34	27.216
173.55	27.733
175.16	28.250
184.58	28.767
192.49	29.284
193.47	29.803
198.14	30.322
210.62	30.839
214.95	31.357
217.61	31.874
228.98	32.391
241.83	32.909
247.01	33.426
253.64	33.943
272.17	34.460
290.70	34.977
302.73	35.494
314.54	36.011
337.13	36.528
350.13	37.045
366.41	37.561
408.29	38.078
449.51	38.594
484.22	38.987
344.10	38.472
290.86	37.955
258.62	37.438
241.86	36.921
225.11	36.404
214.79	35.887
204.74	35.370
196.61	34.853
189.28	34.336
182.50	33.819
177.05	33.301
171.59	32.784
166.30	32.267
161.93	31.749
157.56	31.231
153.19	30.713
149.05	30.195
145.12	29.677
141.19	29.160
137.26	28.643
133.36	28.125
129.80	27.608
126.23	27.091
122.66	26.573
119.09	26.056
115.52	25.539
112.08	25.022
108.67	24.506
105.25	23.989
101.84	23.471
98.426	22.953
95.112	22.435
92.019	21.920
88.926	21.398
85.833	20.881
82.741	20.364
79.631	19.846
76.468	19.329
73.304	18.811
70.140	18.294
66.998	17.777
63.991	17.259
60.985	16.742
57.979	16.225
54.972	15.708
52.051	15.192
49.142	14.675
46.234	14.158
43.326	13.640
40.418	13.122
37.510	12.605
34.604	12.087
31.807	11.570
29.010	11.053
26.213	10.535
23.416	10.018
20.619	9.5005
17.822	8.9828
15.025	8.4651
12.229	7.9474
9.4844	7.4298
6.7598	6.9122
4.0352	6.3946
1.3106	5.8770
-1.1611	5.3593
-3.5997	4.8417
-6.4079	4.3241
-9.2160	3.8065
-12.024	3.2889
-14.832	2.7713
-17.640	2.2553
-20.351	1.7385
-22.977	1.2211
-25.604	0.70365
-28.405	0.18624
-31.230	-0.33118
-34.055	-0.84882
-36.880	-1.3679
-39.569	-1.8851
-42.346	-2.4021
-45.240	-2.9190
-48.134	-3.4360
-51.029	-3.9531
-53.719	-4.4702
-56.354	-4.9872
-58.988	-5.5043
-61.623	-6.0217
-63.597	-6.5392
-66.349	-7.0568
-69.227	-7.5743
-72.104	-8.0919
-74.982	-8.6094
-77.771	-9.1270
-80.407	-9.6445
-83.370	-10.162
-86.364	-10.680
-89.724	-11.197
-93.350	-11.715
-96.975	-12.233
-100.55	-12.751
-103.73	-13.269
-107.25	-13.787
-111.09	-14.302
-114.93	-14.819
-118.77	-15.336
-122.68	-15.853
-127.43	-16.370
-132.72	-16.887
-138.61	-17.404
-143.04	-17.921
-148.34	-18.438
-154.10	-18.956
-159.30	-19.473
-167.60	-19.990
-189.06	-20.507
-221.94	-21.024
-276.96	-21.540
-333.11	-22.055
-466.31	-22.371
-326.62	-22.235

File: C7 - 10.txt
Load (N)	Extension (mm)

18.445
18.478	1.8916
18.511	1.8915
18.544	1.8914
18.577	1.8912
18.610	1.8911
15.501	1.7867
13.956	1.6082
12.624	1.4171
11.377	1.2245
10.308	1.0317
9.3965	0.83973
8.4853	0.64774
7.5003	0.45529
6.4822	0.26285
5.4641	0.070405
6.0601	-0.034543
6.1378	-0.029364
5.0349	-0.10307
3.4933	-0.28287
2.5478	-0.47194
1.6023	-0.66264
0.65685	-0.85368
-0.28863	-1.0447
-1.2341	-1.2358
-2.1796	-1.4268
-3.1251	-1.6178
-4.0706	-1.8089
-5.0160	-1.9999
-5.9615	-2.1910
-6.9070	-2.3820
-7.8525	-2.5731
-8.7980	-2.7639
-9.7434	-2.9547
-10.689	-3.1454
-11.634	-3.3361
-12.580	-3.5269
-13.525	-3.7176
-14.471	-3.9083
-15.416	-4.0991
-16.362	-4.2898
-17.307	-4.4806
-18.253	-4.6713
-19.198	-4.8620
-20.144	-5.0528
-21.089	-5.2436
-22.035	-5.4343
-22.980	-5.6253
-23.926	-5.8163
-24.871	-6.0072
-25.817	-6.1982
-26.762	-6.3892
-27.708	-6.5802
-28.653	-6.7711
-29.599	-6.9621
-30.544	-7.1531
-31.490	-7.3440
-32.435	-7.5349
-33.380	-7.7256
-34.326	-7.9163
-35.271	-8.1070
-36.217	-8.2977
-37.162	-8.4884
-38.108	-8.6791
-39.053	-8.8698
-39.999	-9.0605
-40.944	-9.2512
-41.890	-9.4419
-42.826	-9.6326
-43.732	-9.8233
-44.637	-10.003
-40.963	-10.005
-41.652	-9.9944
-38.872	-9.8255
-37.414	-9.6453
-36.485	-9.4602
-35.556	-9.2695
-34.628	-9.0787
-33.699	-8.8880
-32.771	-8.6972
-31.842	-8.5065
-30.913	-8.3157
-29.985	-8.1250
-29.056	-7.9342
-28.128	-7.7435
-27.199	-7.5527
-26.270	-7.3620
-25.342	-7.1712
-24.413	-6.9805
-23.484	-6.7897
-22.556	-6.5990
-21.627	-6.4082
-20.699	-6.2175
-19.770	-6.0267
-18.841	-5.8360
-17.913	-5.6452
-16.984	-5.4545
-16.056	-5.2638
-15.127	-5.0730
-14.198	-4.8823
-13.270	-4.6915
-12.341	-4.5008
-11.413	-4.3100
-10.484	-4.1193
-9.5553	-3.9285
-8.6267	-3.7378
-7.6981	-3.5470
-6.7695	-3.3563
-5.8409	-3.1655
-4.9122	-2.9748
-3.9836	-2.7840
-3.0550	-2.5933
-2.1264	-2.4025
-1.1978	-2.2118
-0.26918	-2.0210
0.65944	-1.8303
1.5880	-1.6395
2.5167	-1.4488
3.4453	-1.2580
4.3739	-1.0621
5.3025	-0.87139
6.2311	-0.68071
7.1597	-0.49003
8.0883	-0.29935
9.0172	-0.10867
9.9466	0.082012
10.876	0.27269
11.805	0.46337
12.735	0.65405
13.680	0.84473
14.766	1.0354
15.852	1.2261
16.938	1.4168
18.024	1.6075
19.215	1.7981
20.652	1.9888
22.089	2.1795
23.507	2.3702
24.196	2.5627
24.885	2.7535
25.574	2.9443
26.264	3.1350
26.955	3.3258
28.098	3.5165
29.242	3.7073
30.386	3.8981
31.563	4.0888
33.164	4.2796
34.765	4.4704
36.351	4.6611
37.085	4.8519
37.820	5.0427
38.554	5.2334
39.288	5.4242
40.023	5.6150
40.757	5.8057
41.693	5.9965
42.858	6.1873
44.206	6.3781
46.013	6.5689
47.820	6.7597
49.180	6.9505
49.984	7.1413
50.789	7.3321
51.593	7.5229
52.398	7.7136
53.202	7.9043
54.007	8.0950
54.811	8.2857
56.736	8.4763
58.933	8.6670
60.135	8.8577
60.731	9.0484
61.327	9.2391
61.924	9.4298
62.520	9.6205
63.116	9.8111
63.681	9.9920
56.926	9.8811
55.523	9.7071
54.297	9.5176
53.070	9.3268
51.843	9.1361
50.617	8.9454
49.390	8.7547
48.164	8.5640
46.937	8.3733
45.710	8.1826
44.484	7.9919
43.257	7.8012
42.030	7.6104
40.881	7.4197
39.897	7.2290
38.913	7.0383
37.929	6.8476
36.946	6.6569
35.962	6.4662
34.978	6.2755
33.994	6.0848
33.010	5.8940
32.026	5.7033
31.042	5.5126
30.059	5.3219
29.075	5.1312
28.091	4.9405
27.107	4.7503
26.123	4.5613
25.139	4.3723
24.156	4.1819
23.172	3.9911
22.188	3.8003
21.204	3.6094
20.220	3.4186
19.236	3.2277
18.253	3.0369
17.269	2.8460
16.285	2.6552
15.301	2.4643
14.317	2.2735
13.333	2.0826
12.350	1.8918
11.366	1.7009
10.382	1.5101
9.3980	1.3192
8.4142	1.1284
7.4304	0.93752
6.4465	0.74667
5.4627	0.55582
4.4789	0.36497
3.4950	0.17412
2.5287	-0.015880
1.5833	-0.20578
0.63784	-0.39572
-0.30757	-0.58646
-1.2530	-0.77720
-2.1984	-0.96794
-3.1438	-1.1587
-4.0892	-1.3494
-5.0346	-1.5402
-5.9800	-1.7309
-6.9255	-1.9216
-7.8709	-2.1124
-8.8163	-2.3031
-9.7617	-2.4939
-10.707	-2.6846
-11.653	-2.8753
-12.598	-3.0661
-13.543	-3.2568
-14.489	-3.4476
-15.434	-3.6383
-16.380	-3.8290
-17.325	-4.0198
-18.270	-4.2105
-19.216	-4.4013
-20.170	-4.5920
-21.156	-4.7827
-22.141	-4.9735
-23.127	-5.1642
-24.113	-5.3550
-25.098	-5.5461
-26.084	-5.7373
-27.069	-5.9284
-28.055	-6.1196
-29.041	-6.3107
-30.026	-6.5019
-31.012	-6.6930
-31.998	-6.8842
-32.983	-7.0752
-33.969	-7.2659
-34.954	-7.4566
-35.940	-7.6473
-36.939	-7.8380
-37.994	-8.0287
-39.048	-8.2195
-40.103	-8.4102
-41.158	-8.6009
-42.213	-8.7916
-43.268	-8.9823
-44.322	-9.1730
-45.377	-9.3638
-46.432	-9.5543
-47.487	-9.7445
-48.541	-9.9347
-41.993	-9.9348
-38.450	-9.7634
-37.328	-9.5758

File: C7.txt
Load (N)	Extension (mm)

17.944	2.0081
17.977	2.0081
14.956	1.8263
11.652	1.2929
8.7771	0.75395
5.9024	0.21771
6.4364	-0.033439
2.4142	-0.39386
-0.25689	-0.92880
-2.9279	-1.4640
-5.5990	-1.9993
-8.2701	-2.5341
-10.941	-3.0679
-13.612	-3.6018
-16.283	-4.1357
-18.954	-4.6677
-21.625	-5.2023
-24.296	-5.7369
-26.967	-6.2715
-29.639	-6.8061
-32.310	-7.3407
-34.981	-7.8752
-37.652	-8.4096
-40.323	-8.9440
-42.471	-9.4784
-45.288	-10.013
-48.104	-10.547
-50.920	-11.084
-53.737	-11.618
-56.553	-12.153
-59.369	-12.687
-62.186	-13.221
-65.002	-13.755
-68.309	-14.289
-71.646	-14.824
-74.984	-15.358
-78.321	-15.892
-81.659	-16.427
-85.001	-16.961
-88.619	-17.496
-92.236	-18.030
-96.167	-18.564
-100.16	-19.101
-104.15	-19.635
-108.35	-20.170
-112.84	-20.704
-117.33	-21.238
-121.82	-21.773
-127.82	-22.307
-134.00	-22.841
-140.25	-23.375
-175.39	-23.909
-279.42	-24.439
-486.88	-24.966
-463.11	-24.961
-223.62	-24.450
-101.92	-23.915
-99.222	-23.381
-96.528	-22.846
-93.834	-22.312
-91.140	-21.777
-88.446	-21.243
-85.753	-20.708
-83.059	-20.174
-80.316	-19.637
-77.513	-19.102
-74.710	-18.567
-71.648	-18.033
-67.620	-17.498
-66.190	-16.964
-64.235	-16.430
-60.459	-15.895
-58.494	-15.361
-57.147	-14.826
-55.767	-14.292
-52.069	-13.757
-49.882	-13.223
-47.696	-12.687
-45.272	-12.153
-42.416	-11.620
-40.192	-11.086
-37.968	-10.551
-35.705	-10.017
-33.409	-9.4818
-31.112	-8.9471
-26.718	-8.4123
-24.604	-7.8776
-22.491	-7.3377
-20.377	-6.8067
-17.001	-6.2756
-14.876	-5.7409
-12.751	-5.2061
-10.398	-4.6714
-6.7623	-4.1367
-4.5764	-3.6020
-2.3904	-3.0673
1.7200	-2.5326
3.5571	-1.9967
5.3941	-1.4628
7.2312	-0.92888
10.624	-0.39471
12.501	0.13993
14.379	0.67457
16.676	1.2092
19.371	1.7439
21.787	2.2786
24.201	2.8133
26.561	3.3480
28.921	3.8827
31.281	4.4174
35.457	4.9521
37.810	5.4868
40.163	6.0188
43.639	6.5530
46.567	7.0872
48.882	7.6214
51.197	8.1556
55.302	8.6898
57.655	9.2243
60.007	9.7591
63.570	10.285
67.142	10.825
69.367	11.359
71.746	11.893
75.932	12.427
78.316	12.971
80.701	13.505
85.414	14.040
87.803	14.574
90.192	15.108
92.582	15.643
98.221	16.177
100.57	16.711
102.91	17.246
106.88	17.780
112.24	18.314
114.89	18.849
117.54	19.377
122.70	19.912
128.05	20.446
129.70	20.981
131.35	21.515
139.83	22.050
142.89	22.584
144.85	23.119
147.98	23.653
156.50	24.187
158.62	24.721
160.74	25.255
168.95	25.790
174.36	26.324
177.50	26.858
181.49	27.392
194.37	27.927
197.52	28.461
200.66	28.995
209.86	29.530
221.83	30.064
226.20	30.599
230.58	31.134
244.71	31.669
256.45	32.203
266.76	32.737
279.47	33.270
298.41	33.804
320.49	34.338
347.77	34.872
374.57	35.406
416.45	35.939
476.90	36.470
369.45	36.258
293.99	35.738
249.93	35.203
236.49	34.669
223.05	34.134
209.61	33.600
196.18	33.065
195.58	32.531
190.75	31.996
185.92	31.462
181.09	30.927
176.26	30.393
171.43	29.858
166.60	29.324
161.77	28.788
157.69	28.252
153.90	27.717
150.10	27.182
146.31	26.647
142.52	26.113
138.73	25.579
134.94	25.045
131.18	24.511
127.81	23.976
124.45	23.442
121.08	22.907
117.71	22.373
114.35	21.839
110.98	21.303
107.61	20.769
104.25	20.235
100.88	19.700
97.677	19.166
94.495	18.631
91.313	18.097
88.131	17.562
84.949	17.028
81.767	16.493
78.585	15.958
75.402	15.424
72.220	14.889
69.038	14.355
65.856	13.820
62.674	13.286
59.521	12.756
56.409	12.221
53.296	11.686
50.184	11.151
47.072	10.616
43.960	10.082
40.847	9.5467
37.735	9.0119
34.623	8.4771
31.511	7.9423
28.398	7.4097
25.286	6.8753
22.174	6.3408
19.061	5.8063
15.949	5.2718
12.837	4.7373
9.7247	4.2028
6.6124	3.6684
3.5002	3.1337
0.38791	2.5990
-2.7244	2.0643
-5.8366	1.5296
-8.9489	0.99495
-12.058	0.46026
-15.155	-0.074470
-18.251	-0.60933
-21.348	-1.1442
-24.454	-1.6790
-27.623	-2.2139
-30.793	-2.7488
-33.962	-3.2829
-37.131	-3.8134
-40.301	-4.3481
-43.470	-4.8827
-46.639	-5.4173
-49.808	-5.9520
-52.978	-6.4866
-56.147	-7.0213
-59.316	-7.5559
-62.485	-8.0905
-64.920	-8.6252
-68.953	-9.1598
-72.528	-9.6944
-76.074	-10.229
-79.620	-10.764
-83.166	-11.299
-86.713	-11.834
-90.259	-12.368
-94.107	-12.901
-98.125	-13.435
-102.14	-13.969
-106.16	-14.503
-110.18	-15.037
-114.53	-15.572
-119.05	-16.106
-123.58	-16.640
-128.10	-17.174
-132.63	-17.708
-137.15	-18.243
-141.68	-18.778
-145.73	-19.313
-149.75	-19.848
-155.56	-20.383
-161.89	-20.918
-165.64	-21.452
-173.03	-21.987
-180.99	-22.521
-206.12	-23.055
-231.04	-23.589
-275.23	-24.122
-386.29	-24.653
-381.99	-24.892
-283.47	-24.759

File: C8 - 10.txt
Load (N)	Extension (mm)

1.3053	-0.057068
1.3263	-0.057068
1.3473	-0.057068
1.3683	-0.057068
1.3893	-0.057068
4.6992	-0.014826
4.3309	0.025330
4.3767	0.025330
0.36009	-0.026045
-3.1761	-0.18912
-4.6629	-0.36693
-6.2262	-0.55111
-7.3696	-0.73612
-8.5130	-0.92112
-9.6564	-1.1061
-10.800	-1.2915
-11.943	-1.4772
-13.087	-1.6627
-14.230	-1.8469
-15.374	-2.0299
-16.517	-2.2141
-17.660	-2.3984
-18.804	-2.5815
-19.947	-2.7641
-21.091	-2.9471
-22.183	-3.1301
-23.236	-3.3134
-24.289	-3.4970
-25.342	-3.6806
-26.395	-3.8642
-27.448	-4.0477
-28.501	-4.2313
-29.554	-4.4149
-30.607	-4.5985
-31.659	-4.7821
-32.712	-4.9656
-33.655	-5.1488
-34.169	-5.3320
-35.204	-5.5152
-36.238	-5.6985
-37.272	-5.8817
-38.306	-6.0649
-39.340	-6.2481
-40.374	-6.4314
-41.409	-6.6146
-42.443	-6.7978
-43.477	-6.9810
-44.510	-7.1643
-45.532	-7.3475
-46.554	-7.5307
-47.576	-7.7139
-48.597	-7.8972
-49.619	-8.0804
-50.641	-8.2636
-51.663	-8.4468
-52.684	-8.6301
-53.706	-8.8133
-54.728	-8.9965
-55.749	-9.1797
-56.771	-9.3630
-57.799	-9.5462
-58.839	-9.7294
-59.879	-9.9109
-58.768	-10.020
-57.037	-10.008
-48.207	-9.9351
-39.144	-9.7691
-38.131	-9.5906
-37.118	-9.4075
-36.105	-9.2243
-35.092	-9.0411
-34.079	-8.8580
-33.065	-8.6748
-32.052	-8.4916
-31.039	-8.3085
-30.026	-8.1253
-28.907	-7.9421
-27.633	-7.7590
-26.359	-7.5758
-25.084	-7.3926
-24.433	-7.2095
-23.785	-7.0263
-23.138	-6.8431
-22.490	-6.6599
-21.843	-6.4768
-21.195	-6.2936
-20.548	-6.1104
-19.623	-5.9273
-18.682	-5.7441
-17.741	-5.5609
-16.800	-5.3778
-15.859	-5.1946
-15.038	-5.0114
-14.559	-4.8283
-14.080	-4.6451
-13.279	-4.4619
-11.746	-4.2788
-10.213	-4.0956
-8.6798	-3.9124
-7.9742	-3.7293
-7.3660	-3.5461
-6.7579	-3.3629
-6.1497	-3.1718
-5.5415	-2.9889
-4.9334	-2.8061
-4.3252	-2.6232
-3.5217	-2.4403
-2.4147	-2.2572
-1.3076	-2.0741
-0.20060	-1.8910
0.90644	-1.7079
1.9876	-1.5248
2.9352	-1.3417
3.8828	-1.1585
4.8304	-0.97543
5.7780	-0.79237
6.7255	-0.60944
7.6705	-0.42651
8.5064	-0.24358
9.3423	-0.060652
10.178	0.12228
11.014	0.30521
11.850	0.48999
12.686	0.67476
13.522	0.85798
14.358	1.0412
15.194	1.2244
16.028	1.4076
16.769	1.5909
17.510	1.7741
18.251	1.9573
19.171	2.1405
20.381	2.3237
21.591	2.5069
22.735	2.6902
23.792	2.8734
24.848	3.0566
25.904	3.2398
26.961	3.4230
28.017	3.6062
29.074	3.7895
30.130	3.9728
31.075	4.1561
31.666	4.3394
32.258	4.5228
32.849	4.7061
33.440	4.8894
34.402	5.0727
35.789	5.2561
37.176	5.4394
38.563	5.6227
39.951	5.8060
41.338	5.9894
42.217	6.1727
42.953	6.3551
43.690	6.5368
44.427	6.7199
45.164	6.9030
45.901	7.0861
46.638	7.2693
47.381	7.4524
48.242	7.6355
49.104	7.8186
50.354	8.0018
51.923	8.1849
53.193	8.3680
54.169	8.5511
55.145	8.7343
56.122	8.9174
57.098	9.1005
58.010	9.2836
58.750	9.4668
59.491	9.6504
60.231	9.8340
61.052	10.003
49.147	9.8307
47.772	9.6606
46.397	9.4905
45.022	9.3073
43.647	9.1240
42.272	8.9407
40.897	8.7575
39.522	8.5742
38.148	8.3909
36.921	8.2077
35.913	8.0244
34.904	7.8412
33.896	7.6579
32.887	7.4746
31.879	7.2914
30.870	7.1081
29.861	6.9248
28.853	6.7416
27.844	6.5583
26.836	6.3750
25.827	6.1918
24.819	6.0085
23.810	5.8252
22.802	5.6420
21.793	5.4587
20.785	5.2754
19.776	5.0922
18.768	4.9089
17.759	4.7257
16.751	4.5424
15.742	4.3591
14.734	4.1757
13.725	3.9923
12.717	3.8089
11.708	3.6255
10.700	3.4421
9.6913	3.2589
8.6828	3.0756
7.6743	2.8923
6.6658	2.7091
5.6573	2.5258
4.6487	2.3425
3.6402	2.1593
2.6317	1.9760
1.6232	1.7927
0.61471	1.6095
-0.39380	1.4262
-1.4023	1.2430
-2.4108	1.0597
-3.4193	0.87642
-4.4278	0.69315
-5.4364	0.50989
-6.4449	0.32691
-7.4534	0.14398
-8.4619	-0.038958
-9.4350	-0.22189
-10.369	-0.40483
-11.304	-0.58776
-12.238	-0.77070
-13.173	-0.95364
-14.107	-1.1366
-15.042	-1.3195
-15.976	-1.5024
-16.911	-1.6854
-17.846	-1.8683
-18.785	-2.0513
-19.723	-2.2344
-20.662	-2.4174
-21.601	-2.6004
-22.540	-2.7834
-23.479	-2.9665
-24.418	-3.1495
-25.356	-3.3325
-26.295	-3.5155
-27.234	-3.6991
-28.173	-3.8829
-29.112	-4.0667
-30.051	-4.2502
-30.989	-4.4334
-31.996	-4.6166
-33.047	-4.7998
-34.098	-4.9830
-35.149	-5.1662
-36.200	-5.3494
-37.251	-5.5325
-38.302	-5.7157
-39.353	-5.8989
-40.404	-6.0821
-41.455	-6.2653
-42.506	-6.4484
-43.556	-6.6316
-44.607	-6.8147
-45.658	-6.9978
-46.709	-7.1810
-47.760	-7.3641
-48.811	-7.5473
-49.862	-7.7303
-50.913	-7.9133
-51.964	-8.0964
-53.015	-8.2794
-54.013	-8.4624
-54.947	-8.6464
-55.882	-8.8314
-56.816	-9.0153
-57.751	-9.1982
-58.685	-9.3811
-59.627	-9.5641
-60.570	-9.7482
-61.513	-9.9338
-51.897	-9.9313
-37.361	-9.7672