Folder: Senior-Flexonics/text_data

Note: README.md
Install the below dependencies before you run the code

panel
pandas
styleframe
holoviews
hvplot

Note that if there's no install button, it means that it is already installed.

File: C1-10.txt
Load (N)	Extension (mm)

-2.5056
-2.5060	-1.2741
-2.5065	-1.2741
-2.5069	-1.2741
-2.5073	-1.2741
-2.5077	-1.2713
-0.67381	-1.1373
0.047371	-0.95618
0.76855	-0.76835
1.6320	-0.57872
2.6404	-0.38896
3.6488	-0.19921
4.6573	-0.0094521
5.0152	0.091177
4.7493	0.093869
3.2313	0.017269
0.90789	-0.15916
-0.15938	-0.34506
-1.2266	-0.53133
-2.2939	-0.71759
-3.3612	-0.90432
-4.4284	-1.0926
-5.4957	-1.2806
-6.5630	-1.4733
-7.6302	-1.6587
-8.6975	-1.8467
-9.6936	-2.0354
-10.655	-2.2241
-11.616	-2.4128
-12.577	-2.6015
-13.538	-2.7902
-14.499	-2.9789
-15.460	-3.1676
-16.422	-3.3563
-17.383	-3.5450
-18.344	-3.7336
-19.305	-3.9221
-20.266	-4.1106
-21.227	-4.2991
-22.189	-4.4875
-23.150	-4.6760
-24.111	-4.8645
-25.072	-5.0530
-26.050	-5.2415
-27.051	-5.4300
-28.053	-5.6183
-29.055	-5.8063
-30.056	-5.9942
-31.058	-6.1822
-32.060	-6.3701
-33.061	-6.5580
-34.063	-6.7460
-35.065	-6.9339
-36.066	-7.1219
-37.068	-7.3098
-38.062	-7.4980
-38.113	-7.6863
-40.082	-7.8747
-41.046	-8.0630
-42.009	-8.2513
-42.972	-8.4397
-43.935	-8.6280
-44.898	-8.8164
-45.862	-9.0047
-46.825	-9.1928
-47.788	-9.3809
-48.751	-9.5690
-49.714	-9.7571
-50.677	-9.9451
-49.073	-10.007
-48.482	-10.003
-47.340	-9.8944
-45.670	-9.7198
-43.999	-9.5381
-42.785	-9.3499
-41.835	-9.1617
-40.885	-8.9735
-39.936	-8.7854
-38.986	-8.5972
-38.036	-8.4090
-37.087	-8.2208
-36.137	-8.0326
-35.188	-7.8444
-34.238	-7.6562
-33.288	-7.4680
-32.339	-7.2798
-31.389	-7.0916
-30.439	-6.9034
-29.490	-6.7152
-28.540	-6.5270
-27.590	-6.3388
-26.641	-6.1506
-25.691	-5.9624
-24.741	-5.7743
-23.792	-5.5861
-22.842	-5.3979
-21.892	-5.2097
-20.943	-5.0215
-19.993	-4.8333
-19.043	-4.6451
-18.094	-4.4569
-17.144	-4.2687
-16.194	-4.0805
-15.245	-3.8923
-14.295	-3.7041
-13.345	-3.5159
-12.412	-3.3277
-11.515	-3.1395
-10.617	-2.9513
-9.7194	-2.7631
-8.5316	-2.5750
-7.2572	-2.3868
-6.1392	-2.1986
-5.0658	-2.0104
-4.0215	-1.8222
-3.1868	-1.6340
-2.3521	-1.4458
-1.4539	-1.2576
-0.54919	-1.0693
0.35549	-0.88093
1.2602	-0.69256
2.1648	-0.50420
3.0695	-0.31583
3.9742	-0.12746
4.8789	0.060911
5.8716	0.24928
6.8701	0.43765
7.8686	0.62602
8.8672	0.81439
9.8657	1.0028
10.852	1.1911
11.787	1.3795
12.721	1.5679
13.655	1.7562
14.590	1.9446
15.524	2.1330
16.458	2.3213
17.392	2.5092
18.705	2.6971
19.988	2.8851
20.803	3.0730
21.618	3.2610
22.433	3.4489
23.249	3.6369
24.064	3.8248
24.929	4.0134
25.889	4.2049
26.848	4.3931
27.875	4.5812
28.978	4.7693
30.080	4.9574
31.183	5.1456
32.128	5.3337
33.009	5.5218
33.889	5.7099
34.770	5.8980
35.651	6.0862
36.531	6.2743
37.412	6.4624
38.619	6.6505
40.248	6.8387
41.154	7.0268
42.059	7.2159
42.965	7.4052
43.870	7.5919
44.776	7.7787
45.681	7.9654
46.587	8.1530
47.492	8.3412
48.899	8.5294
50.560	8.7176
52.221	8.9057
53.498	9.0939
54.039	9.2821
54.579	9.4703
55.120	9.6584
55.811	9.8466
56.415	10.004
50.735	9.8173
49.313	9.6448
48.245	9.4567
47.177	9.2686
46.109	9.0805
45.041	8.8924
43.973	8.7043
42.905	8.5162
41.837	8.3281
40.769	8.1400
39.701	7.9519
38.633	7.7638
37.566	7.5757
36.498	7.3876
35.430	7.1995
34.362	7.0114
33.294	6.8233
32.226	6.6352
31.158	6.4471
30.108	6.2590
29.096	6.0709
28.084	5.8829
27.071	5.6948
26.059	5.5067
25.047	5.3186
24.035	5.1305
23.022	4.9424
22.010	4.7543
20.998	4.5662
19.986	4.3781
18.973	4.1900
17.961	4.0019
16.949	3.8138
15.936	3.6257
14.924	3.4408
13.912	3.2544
12.900	3.0662
11.894	2.8780
10.916	2.6898
9.9390	2.5016
8.9617	2.3134
7.9844	2.1252
7.0072	1.9370
6.4645	1.7488
5.3170	1.5606
3.8949	1.3724
2.7220	1.1842
1.7598	0.99595
0.79756	0.80775
-0.16466	0.61955
-1.1269	0.43134
-2.0891	0.24314
-3.0513	0.054940
-4.0135	-0.13326
-4.9757	-0.32146
-5.9380	-0.50967
-6.9002	-0.69787
-7.8624	-0.88607
-8.8246	-1.0743
-9.7868	-1.2625
-10.749	-1.4507
-11.711	-1.6389
-12.673	-1.8271
-13.636	-2.0153
-14.598	-2.2035
-15.560	-2.3917
-16.522	-2.5799
-17.524	-2.7681
-18.624	-2.9563
-19.664	-3.1445
-20.650	-3.3327
-21.636	-3.5209
-22.622	-3.7092
-23.553	-3.8975
-24.467	-4.0859
-25.380	-4.2742
-26.294	-4.4626
-27.213	-4.6509
-28.140	-4.8393
-29.068	-5.0276
-30.526	-5.2159
-31.482	-5.4043
-32.438	-5.5926
-33.394	-5.7810
-34.350	-5.9693
-35.306	-6.1563
-36.262	-6.3423
-37.218	-6.5305
-38.174	-6.7186
-39.130	-6.9067
-40.085	-7.0948
-41.041	-7.2830
-41.997	-7.4711
-42.953	-7.6592
-43.931	-7.8473
-44.930	-8.0355
-45.929	-8.2236
-46.929	-8.4118
-47.928	-8.6002
-48.927	-8.7886
-49.926	-8.9770
-50.925	-9.1654
-51.925	-9.3537
-52.924	-9.5421
-53.923	-9.7305
-54.922	-9.9189
-50.536	-9.9359
-45.801	-9.7604

File: C1.txt
Load (N)	Extension (mm)

-2.6020	-1.4432
-2.5728	-1.4431
-0.55998	-1.1984
1.9749	-0.65788
4.5097	-0.11758
5.3914	0.046700
0.25189	-0.45516
-2.5748	-0.98784
-5.4014	-1.5262
-8.2280	-2.0655
-11.055	-2.6027
-13.881	-3.1398
-16.708	-3.6770
-19.535	-4.2142
-22.303	-4.7514
-25.054	-5.2885
-27.806	-5.8257
-30.557	-6.3611
-33.309	-6.8973
-36.083	-7.4338
-39.024	-7.9702
-41.614	-8.5068
-44.133	-9.0436
-46.891	-9.5804
-49.649	-10.117
-52.407	-10.654
-55.165	-11.191
-57.928	-11.728
-60.798	-12.265
-63.616	-12.800
-66.198	-13.337
-69.005	-13.873
-71.945	-14.410
-74.886	-14.947
-77.827	-15.483
-80.571	-16.020
-83.639	-16.556
-86.642	-17.093
-90.297	-17.629
-93.951	-18.166
-97.606	-18.703
-101.26	-19.239
-104.92	-19.776
-109.62	-20.312
-113.80	-20.849
-117.97	-21.385
-123.50	-21.922
-129.34	-22.458
-135.46	-22.994
-141.58	-23.530
-155.89	-24.066
-247.39	-24.601
-463.07	-25.131
-441.96	-25.090
-178.57	-24.568
-127.18	-24.037
-102.81	-23.501
-100.28	-22.964
-97.750	-22.428
-95.220	-21.891
-92.689	-21.355
-90.159	-20.818
-87.628	-20.282
-85.098	-19.745
-82.567	-19.209
-80.037	-18.672
-81.056	-18.136
-77.993	-17.598
-74.642	-17.061
-72.004	-16.524
-69.365	-15.988
-66.727	-15.451
-64.089	-14.915
-61.451	-14.378
-58.990	-13.841
-56.579	-13.305
-54.169	-12.768
-51.754	-12.231
-49.321	-11.695
-46.377	-11.157
-44.018	-10.621
-41.201	-10.084
-38.926	-9.5477
-36.545	-9.0111
-33.786	-8.4745
-31.162	-7.9379
-28.538	-7.4012
-25.871	-6.8646
-23.183	-6.3280
-21.018	-5.7899
-18.667	-5.2533
-16.245	-4.7167
-13.592	-4.1801
-11.089	-3.6436
-8.6560	-3.1070
-6.2232	-2.5704
-3.7903	-2.0338
-1.3574	-1.4976
1.1167	-0.96160
3.7148	-0.42580
6.3130	0.11001
8.9111	0.64581
11.509	1.1826
14.107	1.7193
16.706	2.2561
19.335	2.7929
22.105	3.3296
24.874	3.8664
27.644	4.4032
30.223	4.9400
32.745	5.4767
35.268	6.0135
38.558	6.5503
41.097	7.0798
43.944	7.6276
46.907	8.1603
49.970	8.6955
52.970	9.2321
55.840	9.7687
58.710	10.305
62.146	10.842
64.758	11.384
67.011	11.920
70.654	12.457
75.325	12.993
76.985	13.530
78.686	14.066
83.034	14.603
87.774	15.140
90.546	15.676
92.890	16.213
96.802	16.748
101.86	17.284
104.69	17.820
107.53	18.356
110.96	18.892
115.38	19.429
118.35	19.965
121.18	20.502
126.70	21.038
130.46	21.575
133.29	22.111
136.11	22.648
143.27	23.184
146.73	23.722
150.19	24.259
153.65	24.796
161.19	25.332
166.49	25.869
170.14	26.405
173.79	26.942
183.29	27.479
189.38	28.016
193.18	28.553
196.97	29.090
210.27	29.627
217.16	30.162
223.10	30.698
229.99	31.235
249.31	31.771
259.37	32.307
269.42	32.843
283.56	33.379
308.02	33.914
325.10	34.450
344.53	34.986
375.53	35.522
411.62	36.058
452.22	36.593
458.54	36.873
331.18	36.351
280.01	35.814
251.83	35.277
235.32	34.741
218.82	34.204
209.86	33.667
201.34	33.130
192.81	32.594
185.92	32.057
179.70	31.520
174.63	30.984
169.56	30.447
164.54	29.911
159.91	29.374
155.42	28.837
151.22	28.301
147.02	27.764
142.86	27.228
140.08	26.691
135.91	26.154
131.79	25.618
128.32	25.081
124.84	24.544
121.37	24.006
117.89	23.468
114.41	22.932
110.94	22.395
107.46	21.859
103.99	21.322
100.51	20.786
97.357	20.250
94.260	19.714
91.087	19.178
87.914	18.643
84.741	18.107
81.688	17.571
78.660	17.033
75.556	16.496
72.434	15.959
68.724	15.421
65.605	14.883
62.486	14.347
59.367	13.811
56.249	13.275
53.130	12.738
50.011	12.201
46.893	11.664
43.774	11.126
40.655	10.589
37.536	10.052
34.418	9.5149
31.299	8.9777
28.180	8.4405
25.062	7.9033
21.943	7.3692
18.881	6.8327
15.833	6.2963
12.785	5.7598
9.7366	5.2233
6.6885	4.6867
3.9370	4.1500
1.0792	3.6133
-1.9473	3.0766
-4.4721	2.5398
-7.6131	2.0031
-10.754	1.4664
-13.895	0.92971
-17.036	0.39300
-20.329	-0.14371
-23.875	-0.68042
-27.421	-1.2171
-29.544	-1.7538
-32.773	-2.2905
-36.003	-2.8269
-39.232	-3.3632
-42.461	-3.8996
-45.716	-4.4360
-49.323	-4.9728
-52.930	-5.5100
-56.537	-6.0472
-60.144	-6.5845
-63.751	-7.1210
-67.345	-7.6573
-70.879	-8.1936
-74.413	-8.7299
-77.947	-9.2674
-81.480	-9.8058
-85.014	-10.342
-88.548	-10.879
-92.081	-11.415
-95.806	-11.951
-99.807	-12.488
-103.81	-13.024
-107.81	-13.561
-111.81	-14.098
-115.81	-14.635
-119.82	-15.172
-123.82	-15.708
-127.82	-16.245
-131.82	-16.781
-136.42	-17.318
-141.45	-17.854
-146.44	-18.390
-150.82	-18.927
-153.18	-19.463
-160.32	-20.000
-166.23	-20.536
-171.47	-21.073
-176.72	-21.609
-181.97	-22.145
-189.02	-22.681
-196.79	-23.217
-203.59	-23.754
-218.42	-24.289
-318.14	-24.823
-421.54	-25.068
-321.41	-24.929

File: C2 - 10.txt
Load (N)	Extension (mm)

5.1131
5.1287	0.055847
5.1442	0.055847
5.1597	0.055847
5.1753	0.055847
3.0033	-0.021265
3.7351	0.0080536
4.1872	0.039541
2.9423	-0.039716
0.88452	-0.20577
-1.1732	-0.38467
-2.2612	-0.56884
-3.2235	-0.75303
-4.1857	-0.93762
-5.1480	-1.1222
-6.1102	-1.3065
-7.0725	-1.4918
-8.0348	-1.6764
-8.9970	-1.8614
-9.9593	-2.0440
-10.922	-2.2277
-11.884	-2.4114
-12.846	-2.5951
-13.808	-2.7787
-14.771	-2.9624
-15.733	-3.1461
-16.695	-3.3297
-17.657	-3.5134
-18.620	-3.6971
-19.582	-3.8808
-20.544	-4.0644
-21.506	-4.2477
-22.469	-4.4308
-23.431	-4.6139
-24.393	-4.7971
-25.355	-4.9802
-26.318	-5.1634
-27.280	-5.3465
-28.242	-5.5296
-29.204	-5.7128
-30.167	-5.8959
-31.129	-6.0791
-32.091	-6.2622
-33.053	-6.4453
-34.016	-6.6285
-34.978	-6.8116
-35.940	-6.9948
-36.902	-7.1779
-37.865	-7.3611
-38.827	-7.5442
-39.789	-7.7273
-40.751	-7.9105
-41.714	-8.0936
-42.676	-8.2767
-43.638	-8.4599
-44.600	-8.6430
-45.563	-8.8261
-46.525	-9.0093
-47.487	-9.1924
-48.449	-9.3752
-49.412	-9.5579
-50.374	-9.7405
-51.336	-9.9232
-49.691	-10.015
-48.422	-10.004
-44.958	-9.9292
-43.382	-9.7639
-41.806	-9.5806
-40.229	-9.3974
-38.653	-9.2142
-37.292	-9.0309
-36.395	-8.8477
-35.499	-8.6645
-34.603	-8.4812
-33.707	-8.2980
-32.811	-8.1148
-31.915	-7.9315
-31.019	-7.7483
-30.123	-7.5650
-29.227	-7.3818
-28.331	-7.1986
-27.435	-7.0153
-26.539	-6.8321
-25.643	-6.6489
-24.747	-6.4656
-23.850	-6.2824
-22.954	-6.0992
-22.058	-5.9159
-21.162	-5.7327
-20.266	-5.5495
-19.463	-5.3662
-18.661	-5.1830
-17.859	-4.9998
-17.057	-4.8165
-16.156	-4.6333
-15.244	-4.4500
-14.332	-4.2668
-13.420	-4.0836
-12.508	-3.9003
-11.596	-3.7171
-10.684	-3.5339
-9.7725	-3.3506
-8.8606	-3.1674
-7.9487	-2.9842
-7.0368	-2.8023
-6.1249	-2.6197
-5.2357	-2.4364
-4.3508	-2.2530
-3.4658	-2.0697
-2.5808	-1.8864
-1.6958	-1.7031
-0.81084	-1.5197
0.074141	-1.3364
0.95912	-1.1531
1.8441	-0.96997
2.7291	-0.78680
3.4876	-0.60363
4.3805	-0.42046
5.6384	-0.23729
6.7875	-0.054126
7.5134	0.12904
8.2393	0.31221
8.9652	0.49538
9.6910	0.67854
10.573	0.86171
11.662	1.0449
12.750	1.2280
13.992	1.4112
14.877	1.5944
15.762	1.7776
16.648	1.9607
17.533	2.1439
18.418	2.3271
19.303	2.5103
20.188	2.6935
21.235	2.8767
22.433	3.0599
23.632	3.2431
24.502	3.4263
25.115	3.6095
25.728	3.7927
26.341	3.9759
27.067	4.1591
28.151	4.3424
29.235	4.5256
30.319	4.7088
31.403	4.8920
32.487	5.0752
33.571	5.2584
34.655	5.4418
35.550	5.6256
36.377	5.8094
37.205	5.9926
38.032	6.1757
38.859	6.3589
39.714	6.5420
41.058	6.7252
42.402	6.9083
43.426	7.0915
44.189	7.2746
44.952	7.4578
45.715	7.6409
46.478	7.8241
47.241	8.0072
48.004	8.1848
49.062	8.3771
50.227	8.5598
51.393	8.7424
52.541	8.9251
53.523	9.1078
54.504	9.2905
55.459	9.4731
56.245	9.6558
57.031	9.8385
57.817	10.004
51.682	9.8350
49.412	9.6677
47.433	9.5005
46.452	9.3174
45.471	9.1342
44.490	8.9510
43.509	8.7678
42.528	8.5846
41.547	8.4014
40.566	8.2182
39.585	8.0350
38.604	7.8519
37.623	7.6687
36.642	7.4855
35.661	7.3023
34.680	7.1191
33.698	6.9359
32.717	6.7527
31.736	6.5695
30.755	6.3863
29.774	6.2032
28.793	6.0200
27.812	5.8368
26.831	5.6536
25.850	5.4704
24.869	5.2872
23.888	5.1040
22.907	4.9208
21.926	4.7377
20.945	4.5545
19.958	4.3713
18.801	4.1881
17.644	4.0049
16.659	3.8217
15.728	3.6385
14.797	3.4553
13.866	3.2721
12.936	3.0890
12.005	2.9058
11.074	2.7226
10.143	2.5394
9.2119	2.3562
8.2810	2.1730
7.3501	1.9898
6.4192	1.8066
5.4883	1.6234
4.5574	1.4403
3.6265	1.2485
2.6956	1.0655
1.7647	0.88253
0.83382	0.69954
-0.097082	0.51655
-1.0280	0.33356
-1.9589	0.15057
-2.8898	-0.032424
-3.8207	-0.21541
-4.7516	-0.39841
-5.6825	-0.58140
-6.6134	-0.76439
-7.5443	-0.94743
-8.4752	-1.1305
-9.4061	-1.3135
-10.337	-1.4966
-11.268	-1.6796
-12.199	-1.8627
-13.130	-2.0458
-14.061	-2.2288
-14.991	-2.4121
-15.922	-2.5956
-16.853	-2.7791
-17.788	-2.9627
-18.725	-3.1462
-19.663	-3.3297
-20.601	-3.5133
-21.539	-3.6968
-22.477	-3.8803
-23.415	-4.0639
-24.353	-4.2474
-25.291	-4.4306
-26.229	-4.6138
-27.167	-4.7970
-28.105	-4.9802
-29.043	-5.1634
-29.981	-5.3466
-30.919	-5.5298
-31.857	-5.7130
-32.795	-5.8962
-33.733	-6.0794
-34.671	-6.2626
-35.609	-6.4458
-36.547	-6.6290
-37.485	-6.8122
-38.562	-6.9954
-39.594	-7.1786
-40.582	-7.3618
-41.570	-7.5450
-42.558	-7.7282
-43.546	-7.9114
-44.534	-8.0946
-45.522	-8.2778
-46.509	-8.4610
-47.497	-8.6442
-48.487	-8.8272
-49.478	-9.0103
-50.470	-9.1934
-51.461	-9.3764
-52.453	-9.5595
-53.444	-9.7426
-54.436	-9.9256
-49.916	-9.9621
-42.394	-9.7936

File: C2.txt
Load (N)	Extension (mm)

5.2144	0.058277
5.2366	0.058183
2.1180	-0.014438
3.6446	-0.053487
-3.2479	-0.56789
-6.0432	-1.1025
-8.8385	-1.6369
-11.634	-2.1684
-14.429	-2.6979
-17.224	-3.2279
-20.020	-3.7588
-22.815	-4.2896
-25.610	-4.8191
-28.406	-5.3486
-31.201	-5.8780
-33.996	-6.4075
-36.792	-6.9370
-39.587	-7.4665
-42.382	-7.9963
-44.640	-8.5262
-47.160	-9.0561
-50.031	-9.5858
-52.902	-10.115
-55.773	-10.645
-58.644	-11.175
-61.515	-11.705
-64.087	-12.234
-66.989	-12.764
-70.084	-13.294
-73.399	-13.823
-76.715	-14.353
-80.030	-14.883
-83.346	-15.412
-86.717	-15.942
-90.241	-16.472
-94.295	-17.001
-98.326	-17.531
-102.26	-18.060
-106.01	-18.589
-110.01	-19.118
-114.41	-19.646
-119.22	-20.177
-124.98	-20.708
-135.67	-21.237
-163.87	-21.764
-285.37	-22.290
-530.47	-22.775
-391.95	-22.574
-170.41	-22.057
-111.44	-21.528
-108.32	-20.999
-105.21	-20.469
-102.09	-19.940
-98.974	-19.411
-95.858	-18.882
-77.664	-18.352
-75.039	-17.823
-72.413	-17.294
-69.788	-16.765
-67.162	-16.235
-64.751	-15.706
-62.487	-15.177
-60.242	-14.647
-58.231	-14.118
-56.219	-13.588
-53.971	-13.058
-51.223	-12.528
-48.516	-11.998
-45.914	-11.468
-43.312	-10.938
-40.709	-10.409
-38.592	-9.8792
-36.954	-9.3497
-34.888	-8.8201
-32.453	-8.2906
-30.017	-7.7610
-27.582	-7.2315
-25.146	-6.7019
-22.588	-6.1723
-19.910	-5.6428
-17.315	-5.1132
-14.757	-4.5820
-12.198	-4.0516
-9.6342	-3.5223
-7.0705	-2.9929
-4.5449	-2.4635
-2.0237	-1.9341
0.49745	-1.4050
3.0186	-0.87588
5.5398	-0.34675
8.0488	0.18289
10.553	0.71236
13.057	1.2413
15.561	1.7703
18.071	2.2998
20.619	2.8307
23.166	3.3615
25.717	3.8911
28.268	4.4208
30.820	4.9505
33.392	5.4801
36.187	6.0097
38.982	6.5393
41.777	7.0688
44.571	7.5984
47.366	8.1280
50.161	8.6593
53.191	9.1804
56.233	9.7118
58.659	10.243
62.875	10.774
65.643	11.303
68.183	11.833
71.573	12.362
75.798	12.892
78.928	13.421
81.868	13.951
84.808	14.480
87.748	15.010
90.688	15.539
93.627	16.069
96.391	16.601
99.111	17.130
102.18	17.659
106.18	18.189
111.06	18.718
112.89	19.247
115.45	19.777
120.81	20.306
126.40	20.836
128.73	21.366
130.36	21.897
134.69	22.427
142.25	22.957
144.43	23.486
146.45	24.016
151.83	24.546
158.74	25.075
162.60	25.605
166.46	26.135
172.21	26.664
179.19	27.195
183.54	27.725
187.88	28.254
194.79	28.784
202.24	29.313
206.69	29.843
211.61	30.373
220.16	30.902
229.11	31.432
234.50	31.961
240.06	32.491
250.57	33.020
260.28	33.549
267.80	34.078
278.40	34.607
291.65	35.136
303.96	35.665
313.92	36.194
323.88	36.724
331.94	37.253
347.92	37.782
366.46	38.312
383.95	38.841
418.45	39.370
454.44	39.897
439.85	40.150
333.57	39.635
286.82	39.106
269.66	38.577
253.15	38.047
241.26	37.518
231.38	36.989
222.99	36.459
215.72	35.930
208.63	35.400
202.76	34.871
196.89	34.342
191.25	33.812
186.35	33.283
181.46	32.753
176.56	32.224
172.32	31.690
168.08	31.161
163.84	30.631
159.63	30.102
155.80	29.572
151.98	29.042
148.16	28.512
144.33	27.983
140.52	27.453
137.02	26.923
133.52	26.393
130.01	25.863
126.57	25.333
123.23	24.804
119.90	24.275
116.56	23.749
113.23	23.215
109.89	22.685
106.68	22.156
103.53	21.626
100.38	21.096
97.224	20.566
94.071	20.037
90.919	19.507
87.766	18.977
84.614	18.447
81.552	17.917
78.523	17.387
75.495	16.857
72.467	16.327
69.485	15.798
66.510	15.272
63.582	14.743
60.686	14.213
57.700	13.682
54.709	13.151
51.627	12.621
48.524	12.091
45.422	11.561
42.324	11.032
39.308	10.502
36.292	9.9741
33.276	9.4442
30.260	8.9144
27.244	8.3845
24.228	7.8548
21.212	7.3251
18.196	6.7955
16.115	6.2659
13.148	5.7363
10.181	5.2067
7.2139	4.6775
4.2076	4.1483
1.1846	3.6190
-1.8383	3.0898
-4.8613	2.5606
-7.8843	2.0313
-10.792	1.5021
-13.643	0.97288
-16.751	0.44019
-20.016	-0.089062
-22.979	-0.61831
-25.426	-1.1476
-28.423	-1.6775
-31.578	-2.2067
-34.733	-2.7368
-37.888	-3.2668
-41.043	-3.7963
-44.012	-4.3257
-46.751	-4.8551
-50.078	-5.3847
-53.405	-5.9144
-56.732	-6.4441
-60.060	-6.9739
-63.344	-7.5036
-66.589	-8.0334
-69.963	-8.5631
-73.999	-9.0926
-78.035	-9.6216
-81.932	-10.151
-85.449	-10.680
-89.285	-11.209
-93.122	-11.739
-96.959	-12.271
-100.80	-12.801
-104.63	-13.330
-108.23	-13.860
-111.65	-14.390
-115.53	-14.920
-120.31	-15.449
-123.69	-15.979
-128.23	-16.508
-132.18	-17.038
-135.47	-17.567
-140.57	-18.096
-145.66	-18.626
-150.76	-19.155
-157.05	-19.685
-164.04	-20.214
-174.66	-20.743
-200.11	-21.272
-274.44	-21.800
-369.96	-22.326
-475.98	-22.662
-336.64	-22.520

File: C3-10.txt
Load (N)	Extension (mm)

-3.3060	-1.1237
-3.2954	-1.1237
-3.2847	-1.1237
-3.2741	-1.1237
-3.2635	-1.1237
-0.87121	-1.0343
-0.20252	-0.86057
0.46618	-0.67333
1.6437	-0.48554
3.5025	-0.29592
4.0742	-0.10667
4.6460	0.076793
2.0686	0.072246
1.8040	0.068834
1.0828	-0.084479
-0.030455	-0.26274
-1.1437	-0.44639
-2.2570	-0.63207
-3.3703	-0.81808
-4.4836	-1.0041
-5.5969	-1.1936
-6.7102	-1.3823
-7.8234	-1.5682
-8.9367	-1.7540
-9.9746	-1.9400
-10.941	-2.1281
-11.908	-2.3162
-12.874	-2.5043
-13.841	-2.6924
-14.808	-2.8805
-15.774	-3.0685
-16.741	-3.2562
-17.708	-3.4433
-18.674	-3.6304
-19.641	-3.8175
-20.607	-4.0045
-21.574	-4.1916
-22.541	-4.3786
-23.507	-4.5655
-24.474	-4.7524
-25.440	-4.9393
-26.407	-5.1262
-27.374	-5.3131
-28.340	-5.5000
-29.307	-5.6869
-30.273	-5.8738
-31.240	-6.0607
-32.207	-6.2476
-33.173	-6.4344
-34.300	-6.6213
-35.549	-6.8082
-36.606	-6.9951
-37.662	-7.1820
-38.719	-7.3692
-39.776	-7.5564
-40.833	-7.7436
-41.890	-7.9308
-42.947	-8.1181
-44.004	-8.3053
-45.060	-8.4925
-46.117	-8.6797
-47.174	-8.8670
-48.231	-9.0542
-49.288	-9.2414
-50.345	-9.4286
-51.401	-9.6159
-52.458	-9.8039
-53.515	-9.9922
-46.230	-10.008
-46.784	-10.001
-43.585	-9.8311
-42.587	-9.6531
-41.700	-9.4751
-40.813	-9.2884
-39.926	-9.1013
-39.040	-8.9142
-38.153	-8.7270
-37.266	-8.5399
-36.379	-8.3528
-35.492	-8.1657
-34.606	-7.9786
-33.719	-7.7914
-32.832	-7.6043
-31.945	-7.4172
-31.116	-7.2301
-30.325	-7.0430
-29.535	-6.8558
-28.744	-6.6687
-27.954	-6.4816
-27.110	-6.2945
-26.243	-6.1074
-25.376	-5.9202
-24.509	-5.7331
-23.642	-5.5460
-22.775	-5.3589
-21.908	-5.1717
-21.041	-4.9846
-20.174	-4.7975
-19.307	-4.6104
-18.372	-4.4233
-17.402	-4.2361
-16.432	-4.0490
-15.462	-3.8619
-14.492	-3.6748
-13.522	-3.4877
-12.552	-3.3005
-11.651	-3.1134
-10.809	-2.9263
-9.9670	-2.7392
-9.1247	-2.5521
-8.2825	-2.3649
-7.3794	-2.1778
-6.4665	-1.9907
-5.5360	-1.8037
-4.5300	-1.6168
-3.5241	-1.4298
-2.5181	-1.2428
-1.5122	-1.0558
-0.50622	-0.86879
0.39912	-0.68180
1.2858	-0.49470
2.1724	-0.30760
3.0590	-0.12049
3.9457	0.066616
4.8323	0.25372
5.8447	0.44083
6.8830	0.62793
7.9214	0.81504
8.9597	1.0021
9.9981	1.1893
11.036	1.3763
12.038	1.5633
13.032	1.7502
14.026	1.9371
15.019	2.1240
16.013	2.3109
17.006	2.4979
18.039	2.6848
19.101	2.8717
20.163	3.0586
21.225	3.2455
22.224	3.4324
23.177	3.6194
24.130	3.8063
25.083	3.9932
26.035	4.1804
26.988	4.3692
27.941	4.5563
28.893	4.7435
29.846	4.9306
30.799	5.1178
31.751	5.3049
32.676	5.4921
33.565	5.6792
34.453	5.8663
35.341	6.0535
36.229	6.2406
37.117	6.4278
37.985	6.6149
38.825	6.7984
39.665	6.9838
40.504	7.1710
41.494	7.3531
43.156	7.5511
44.817	7.7338
45.531	7.9165
46.200	8.1022
46.870	8.2897
47.540	8.4773
48.210	8.6648
48.968	8.8524
50.179	9.0399
51.390	9.2274
52.601	9.4150
53.812	9.6025
54.980	9.7900
55.148	9.9776
51.138	9.8830
48.912	9.7089
46.998	9.5344
45.999	9.3474
45.000	9.1604
44.001	8.9734
43.002	8.7864
42.003	8.5994
41.004	8.4124
40.005	8.2254
39.005	8.0384
38.006	7.8514
37.007	7.6644
36.008	7.4774
35.009	7.2904
34.010	7.1035
33.011	6.9165
32.012	6.7295
31.013	6.5425
30.014	6.3555
29.015	6.1685
28.016	5.9815
27.017	5.7945
26.018	5.6075
25.019	5.4205
24.020	5.2335
23.021	5.0465
22.022	4.8595
21.023	4.6725
20.024	4.4855
19.025	4.2985
18.026	4.1115
17.027	3.9245
16.028	3.7375
15.029	3.5505
14.046	3.3635
13.063	3.1765
12.081	2.9895
11.098	2.8025
10.116	2.6155
9.1332	2.4286
8.1506	2.2416
7.1681	2.0546
6.1856	1.8676
5.2030	1.6806
4.2205	1.4936
3.2379	1.3066
2.2554	1.1196
1.2729	0.93258
0.29031	0.73942
-0.69223	0.55251
-1.6748	0.36560
-2.6573	0.17870
-3.6399	-0.0082124
-4.6224	-0.19512
-5.6049	-0.38203
-6.5875	-0.56894
-7.5700	-0.75584
-8.5526	-0.94275
-9.5351	-1.1297
-10.518	-1.3166
-11.500	-1.5035
-12.483	-1.6886
-13.465	-1.8738
-14.457	-2.0608
-15.457	-2.2479
-16.457	-2.4349
-17.457	-2.6220
-18.456	-2.8090
-19.456	-2.9960
-20.456	-3.1831
-21.456	-3.3701
-22.456	-3.5571
-23.455	-3.7442
-24.455	-3.9312
-25.455	-4.1183
-26.455	-4.3053
-27.455	-4.4923
-28.454	-4.6794
-29.454	-4.8664
-30.454	-5.0534
-31.454	-5.2405
-32.453	-5.4275
-33.453	-5.6146
-34.457	-5.8016
-35.465	-5.9886
-36.472	-6.1757
-37.480	-6.3627
-38.487	-6.5498
-39.495	-6.7368
-40.502	-6.9238
-41.510	-7.1109
-42.517	-7.2980
-43.532	-7.4852
-44.560	-7.6723
-45.587	-7.8595
-46.615	-8.0466
-47.642	-8.2338
-48.670	-8.4209
-50.088	-8.6081
-51.216	-8.7952
-52.287	-8.9824
-53.358	-9.1695
-54.429	-9.3567
-55.500	-9.5438
-56.571	-9.7310
-57.643	-9.9181
-51.943	-9.9543
-42.536	-9.7901